,Timestamp,Accel_x,Accel_y,Accel_z,Gyro_x,Gyro_y,Gyro_z,Light,Magnetic_x,Magnetic_y,Magnetic_z,Proximity,Latitude,Longitude,Elevation,Speed,Acceleration,Bearing
0,1633985882.0,-0.348,-1.021,9.815,-0.003,-0.013,0.004,410.5,-47.831,18.263,-58.669,5.0,-32.95812,-60.63654,52.8,8.083333333333334,-1.021,86.32369
1,1633985883.0,0.049,-0.755,10.256,-0.005,0.028,-0.001,410.5,-48.469,15.9,-60.525,5.0,-32.95813,-60.63644,53.6,8.36111111111111,-0.755,61.604633
2,1633985884.0,-0.499,-1.013,9.925,-0.023,-0.014,-0.005,410.5,-48.975,18.281,-59.419,5.0,-32.95815,-60.63635,51.9,8.36111111111111,-1.013,30.706606
3,1633985885.0,-0.447,-0.975,10.309,-0.008,-0.013,0.019,372.5,-48.788,16.856,-58.8,5.0,-32.95816,-60.63627,51.2,8.11111111111111,-0.975,82.54746
4,1633985886.0,-0.504,-0.999,9.621,-0.008,-0.003,0.012,372.5,-50.456,19.406,-60.488,5.0,-32.95818,-60.63618,50.6,7.749999999999999,-0.999,88.92054
5,1633985887.0,-0.621,-1.14,9.08,-0.008,-0.023,0.012,372.5,-48.094,17.644,-59.138,5.0,-32.95819,-60.6361,49.9,7.472222222222221,-1.14,96.938065
6,1633985888.0,-0.403,-1.126,9.686,-0.01,0.0,0.018,471.1,-48.6,20.175,-58.669,5.0,-32.9582,-60.63603,48.3,7.138888888888888,-1.126,100.11541
7,1633985889.0,-0.339,-1.646,9.279,-0.016,-0.008,-0.025,471.1,-48.544,17.813,-61.613,5.0,-32.95822,-60.63589,47.3,6.138888888888889,-1.646,102.27766
8,1633985890.0,-0.193,-2.149,9.659,-0.005,0.001,-0.024,471.1,-48.225,17.006,-59.438,5.0,-32.95823,-60.63582,45.7,5.361111111111112,-2.149,94.12759
9,1633985891.0,-0.133,-2.022,9.465,-0.002,-0.002,-0.022,471.1,-47.044,16.2,-59.006,5.0,-32.95824,-60.63577,45.8,4.166666666666667,-2.022,70.55692
10,1633985892.0,-0.286,-1.802,9.432,0.001,0.0,-0.01,471.1,-48.919,16.238,-60.206,5.0,-32.95824,-60.63576,46.2,2.611111111111111,-1.802,60.141895
11,1633985893.0,-0.303,-1.502,9.525,0.001,0.004,-0.003,471.1,-49.706,18.619,-59.4,5.0,-32.95824,-60.63574,46.0,1.7222222222222223,-1.502,55.083256
12,1633985894.0,-0.291,-1.366,9.669,0.001,-0.005,-0.005,471.1,-49.125,18.75,-59.119,5.0,-32.95824,-60.63575,42.9,0.7222222222222222,-1.366,54.03225
13,1633985895.0,-0.372,-0.724,9.825,0.001,0.001,0.002,471.1,-49.519,16.875,-60.338,5.0,-32.95824,-60.63573,44.6,0.5277777777777778,-0.724,39.952335
14,1633985896.0,-0.284,-0.786,9.765,-0.001,0.001,0.0,471.1,-47.644,16.838,-59.138,5.0,-32.95824,-60.63573,45.7,0.4722222222222222,-0.786,36.492805
15,1633985897.0,-0.327,-0.779,9.875,0.0,-0.0,0.0,471.1,-47.475,15.881,-59.775,5.0,-32.95824,-60.63573,45.7,0.4722222222222222,-0.779,32.876453
16,1633985898.0,-0.281,-0.788,9.827,-0.0,-0.0,0.0,471.1,-48.469,15.9,-59.438,5.0,-32.95823,-60.63571,48.3,0.7222222222222222,-0.788,20.407627
17,1633985899.0,-0.296,-0.791,9.849,-0.0,-0.0,-0.001,471.1,-48.75,15.281,-59.888,5.0,-32.95823,-60.6357,48.7,0.8055555555555555,-0.791,24.23954
18,1633985900.0,-0.243,-0.784,9.767,0.001,-0.001,-0.001,471.1,-49.069,16.556,-60.356,5.0,-32.95825,-60.63565,48.9,1.3611111111111112,-0.784,18.758701
19,1633985901.0,-0.353,-0.764,9.88,-0.0,-0.001,-0.001,471.1,-49.519,17.344,-59.869,5.0,-32.95823,-60.63572,51.9,0.0,-0.764,22.06442
20,1633985902.0,-0.279,-0.74,9.652,0.001,-0.002,-0.001,471.1,-50.25,17.363,-60.319,5.0,-32.95823,-60.6357,52.7,0.0,-0.74,19.247606
21,1633985903.0,-0.289,-0.731,9.729,-0.001,-0.0,-0.001,471.1,-46.575,14.925,-59.625,5.0,-32.95823,-60.63571,51.2,0.0,-0.731,20.394072
22,1633985904.0,-0.3,-0.297,9.679,0.007,-0.002,0.002,471.1,-51.0,18.469,-59.85,5.0,-32.95822,-60.63571,53.1,0.0,-0.297,20.867872
23,1633985905.0,-0.348,-0.817,9.657,-0.008,0.002,0.001,471.1,-49.5,16.556,-61.125,5.0,-32.95822,-60.63572,53.4,0.0,-0.817,24.086983
24,1633985906.0,-0.308,-0.355,9.65,0.004,-0.003,-0.002,471.1,-48.769,15.75,-61.125,5.0,-32.95822,-60.63571,53.6,0.4444444444444445,-0.355,36.503033
25,1633985907.0,-0.205,0.532,9.693,0.002,0.01,0.004,524.2,-46.163,15.244,-61.2,5.0,-32.95822,-60.63571,54.1,0.4444444444444445,0.532,59.799774
26,1633985908.0,-0.348,0.555,10.259,0.02,-0.01,0.001,524.2,-46.706,19.2,-58.388,5.0,-32.95822,-60.63569,53.7,1.1944444444444444,0.555,64.75831
27,1633985909.0,-0.14,0.694,9.949,0.003,0.019,0.001,586.2,-48.525,17.494,-60.525,5.0,-32.95823,-60.63567,53.3,2.2222222222222223,0.694,70.40281
28,1633985910.0,-0.272,-0.927,9.741,0.002,0.023,-0.003,586.2,-48.075,16.838,-60.375,5.0,-32.95823,-60.63563,53.2,3.416666666666667,-0.927,91.77719
29,1633985911.0,-0.243,0.9,8.871,0.004,0.033,-0.007,652.8,-48.375,17.325,-60.375,5.0,-32.95824,-60.63559,53.4,4.222222222222222,0.9,94.6112
30,1633985912.0,-0.571,0.917,9.281,0.014,-0.043,-0.007,652.8,-47.381,17.625,-61.163,5.0,-32.95825,-60.63553,53.0,4.888888888888889,0.917,98.31581
31,1633985913.0,-0.83,-0.274,9.786,0.012,-0.005,0.021,652.8,-47.625,16.519,-59.925,5.0,-32.95826,-60.63547,52.6,5.888888888888888,-0.274,104.33384
32,1633985914.0,-0.277,-0.384,10.208,-0.081,-0.02,-0.009,652.8,-46.781,16.669,-59.475,5.0,-32.95828,-60.63541,51.9,6.444444444444444,-0.384,98.838646
33,1633985915.0,-0.171,0.342,10.168,0.015,0.003,-0.009,518.3,-46.2,16.5,-61.2,5.0,-32.95829,-60.63534,51.6,6.666666666666666,0.342,102.80927
34,1633985916.0,-0.245,0.769,9.516,0.005,0.007,0.007,421.2,-48.788,16.538,-60.356,5.0,-32.9583,-60.63526,52.3,7.5,0.769,102.24141
35,1633985917.0,-0.004,-0.839,9.621,0.01,0.002,0.006,379.2,-48.825,17.644,-61.144,5.0,-32.95832,-60.63517,52.2,8.666666666666666,-0.839,97.511696
36,1633985918.0,-0.265,0.498,9.937,0.01,0.017,0.012,421.5,-49.838,17.981,-60.656,5.0,-32.95834,-60.63507,52.2,9.555555555555555,0.498,98.2726
37,1633985919.0,0.699,-0.599,8.522,-0.006,-0.03,0.004,421.5,-47.663,17.306,-60.394,5.0,-32.95837,-60.63497,51.9,9.88888888888889,-0.599,99.29531
38,1633985920.0,0.004,-0.743,9.738,0.001,0.017,-0.003,469.5,-49.388,17.494,-63.15,5.0,-32.95839,-60.63486,52.5,10.527777777777777,-0.743,102.10076
39,1633985921.0,-0.217,-0.843,10.172,-0.027,0.022,0.007,419.5,-47.325,15.731,-61.95,5.0,-32.95841,-60.63474,52.1,10.694444444444445,-0.843,90.77277
40,1633985922.0,-0.138,-0.678,9.899,0.019,0.005,-0.011,424.5,-51.881,14.55,-59.813,5.0,-32.95843,-60.63464,52.4,10.722222222222223,-0.678,95.55263
41,1633985923.0,-0.023,-0.944,9.808,-0.001,-0.001,-0.014,540.2,-49.069,16.856,-59.569,5.0,-32.95846,-60.63452,52.1,10.88888888888889,-0.944,99.29783
42,1633985924.0,-0.344,-0.597,9.346,-0.031,-0.018,-0.005,603.4,-47.663,17.625,-61.931,5.0,-32.95847,-60.6344,52.0,10.88888888888889,-0.597,102.07328
43,1633985925.0,-0.253,-0.309,10.004,-0.01,0.013,0.012,603.4,-49.088,16.856,-60.356,5.0,-32.95849,-60.63427,51.7,11.055555555555555,-0.309,100.376434
44,1633985926.0,-0.272,-0.209,8.763,-0.028,-0.021,0.0,671.3,-47.85,19.05,-55.875,5.0,-32.95853,-60.63415,53.0,11.472222222222221,-0.209,99.17229
45,1633985927.0,-0.346,-0.863,10.452,0.022,0.019,0.005,671.3,-48.525,17.794,-60.206,5.0,-32.95855,-60.63405,52.2,11.583333333333334,-0.863,103.93783
46,1633985928.0,-0.444,-0.604,9.501,-0.0,0.023,-0.013,540.3,-48.225,17.475,-58.669,5.0,-32.95858,-60.63379,49.6,12.083333333333332,-0.604,101.247826
47,1633985929.0,-0.111,-1.035,9.734,-0.003,-0.023,0.009,491.2,-48.225,17.006,-60.225,5.0,-32.95861,-60.63367,49.6,12.0,-1.035,103.0559
48,1633985930.0,-0.545,-1.128,10.014,-0.012,0.004,0.006,491.2,-48.469,15.431,-59.738,5.0,-32.95862,-60.63356,49.9,11.5,-1.128,92.41634
49,1633985931.0,-0.289,-1.291,10.033,0.014,-0.015,-0.005,444.4,-48.244,17.475,-59.756,5.0,-32.95864,-60.63344,49.6,11.194444444444443,-1.291,92.270226
50,1633985932.0,-0.382,-1.25,9.475,-0.0,-0.008,0.004,444.4,-48.244,17.475,-60.225,5.0,-32.95867,-60.63331,49.0,10.916666666666666,-1.25,88.414085
51,1633985933.0,-0.145,-1.025,9.19,-0.012,0.027,0.002,444.4,-47.794,17.475,-58.2,5.0,-32.95869,-60.6332,49.1,10.527777777777777,-1.025,80.30638
52,1633985934.0,-0.109,-2.02,9.604,-0.001,0.008,0.004,444.4,-47.531,17.794,-59.775,5.0,-32.95871,-60.63307,49.0,10.36111111111111,-2.02,87.94536
53,1633985935.0,-0.578,-2.146,10.215,-0.017,-0.007,0.013,444.4,-46.763,16.669,-58.238,5.0,-32.95871,-60.63307,49.0,10.36111111111111,-2.146,85.194435
54,1633985936.0,-0.305,-2.23,9.607,0.006,0.002,0.001,395.2,-49.8,16.875,-58.313,5.0,-32.95872,-60.63298,47.6,9.11111111111111,-2.23,68.22594
55,1633985937.0,-0.281,-2.777,9.59,0.01,0.002,-0.002,395.2,-48.225,17.006,-59.756,5.0,-32.95873,-60.63289,48.7,7.972222222222221,-2.777,65.67803
56,1633985938.0,-0.437,-2.108,9.616,0.001,0.006,-0.004,442.7,-47.794,17.475,-58.988,5.0,-32.95876,-60.63283,47.0,6.055555555555555,-2.108,61.458153
57,1633985939.0,-0.372,-2.846,9.583,0.005,0.014,0.003,442.7,-49.5,16.556,-58.781,5.0,-32.95876,-60.6328,45.7,4.305555555555555,-2.846,36.047413
58,1633985940.0,-0.478,-1.861,9.652,-0.005,-0.001,-0.001,492.2,-47.363,17.306,-59.625,5.0,-32.95875,-60.63275,45.7,2.694444444444444,-1.861,54.36114
59,1633985941.0,-0.37,-1.013,9.552,0.003,0.003,0.002,492.2,-48.956,17.494,-58.95,5.0,-32.95875,-60.63277,44.8,0.6388888888888888,-1.013,38.408253
60,1633985942.0,-0.399,-0.925,9.825,0.006,-0.003,0.0,492.2,-50.981,18.0,-61.088,5.0,-32.95875,-60.63276,44.9,0.0,-0.925,29.932596
61,1633985943.0,-0.329,-0.736,9.628,-0.001,-0.001,-0.001,492.2,-49.688,17.813,-59.4,5.0,-32.95874,-60.63275,44.6,0.3333333333333333,-0.736,19.119493
62,1633985944.0,-0.339,-0.704,9.585,-0.0,0.001,0.001,492.2,-49.519,17.344,-59.869,5.0,-32.95875,-60.63276,44.0,0.2777777777777778,-0.704,13.0429945
63,1633985945.0,-0.394,-0.772,9.894,0.001,0.002,0.001,492.2,-49.388,17.494,-59.719,5.0,-32.95876,-60.63276,44.9,0.3333333333333333,-0.772,4.6152363
64,1633985946.0,-0.351,-0.8,9.808,0.001,0.002,0.001,492.2,-48.394,17.963,-59.906,5.0,-32.95876,-60.63277,44.1,0.38888888888888884,-0.8,5.949138
65,1633985947.0,-0.312,-0.779,9.765,0.001,-0.002,-0.002,492.2,-49.106,17.663,-61.125,5.0,-32.95875,-60.63276,44.8,0.25,-0.779,3.9015427
66,1633985948.0,-0.341,-0.764,9.872,-0.001,0.002,0.001,492.2,-48.956,17.494,-59.419,5.0,-32.95875,-60.63276,43.8,0.3333333333333333,-0.764,-2.1068
67,1633985949.0,-0.329,-0.795,9.686,0.001,0.003,0.001,442.2,-48.938,17.025,-60.206,5.0,-32.95875,-60.63276,45.9,0.0,-0.795,6.5347266
68,1633985950.0,-0.358,-0.762,9.712,-0.001,-0.0,-0.001,442.2,-48.113,17.944,-58.819,5.0,-32.95875,-60.63276,45.0,0.0,-0.762,10.499945
69,1633985951.0,-0.36,-0.745,9.805,-0.001,-0.001,-0.0,493.2,-49.35,16.238,-60.188,5.0,-32.95875,-60.63276,44.5,0.0,-0.745,4.4413815
70,1633985952.0,-0.315,-0.793,9.75,0.001,0.0,-0.0,493.2,-49.65,17.025,-59.719,5.0,-32.95875,-60.63276,44.5,0.0,-0.793,9.248403
71,1633985953.0,-0.324,-0.554,9.616,-0.001,-0.001,-0.002,493.2,-50.081,17.044,-59.7,5.0,-32.95875,-60.63276,44.4,0.0,-0.554,21.036963
72,1633985954.0,-0.329,-0.815,9.707,0.001,-0.004,-0.002,493.2,-49.65,16.706,-59.719,5.0,-32.95875,-60.63277,43.3,0.0,-0.815,25.067217
73,1633985955.0,-0.396,0.692,10.004,0.006,0.002,0.002,493.2,-50.531,17.363,-58.294,5.0,-32.95875,-60.63277,42.9,0.0,0.692,38.80929
74,1633985956.0,-0.394,0.414,9.71,-0.015,-0.027,0.007,493.2,-49.35,16.238,-58.95,5.0,-32.95875,-60.63276,43.5,0.5833333333333334,0.414,51.52531
75,1633985957.0,-0.293,0.141,9.753,-0.009,0.018,0.002,441.9,-49.425,19.088,-59.419,5.0,-32.95875,-60.63275,44.0,2.305555555555556,0.141,60.976627
76,1633985958.0,-0.444,0.397,9.779,0.027,0.012,-0.004,399.1,-50.25,17.681,-61.406,5.0,-32.95876,-60.63271,43.4,3.9722222222222223,0.397,69.62257
77,1633985959.0,-0.169,0.11,10.011,0.01,0.055,0.011,447.0,-47.663,17.625,-59.925,5.0,-32.95877,-60.63269,43.9,3.8055555555555554,0.11,94.42237
78,1633985960.0,-0.181,0.462,9.884,0.045,0.033,-0.014,447.0,-48.525,17.475,-57.413,5.0,-32.95877,-60.63265,43.5,4.583333333333333,0.462,97.20888
79,1633985961.0,-0.253,0.407,9.75,0.009,-0.001,-0.012,447.0,-47.494,16.988,-56.344,5.0,-32.95878,-60.6326,43.4,5.555555555555555,0.407,97.715324
80,1633985962.0,-0.425,-0.779,9.7,-0.005,-0.001,0.009,501.5,-48.094,17.644,-58.35,5.0,-32.95878,-60.63252,43.3,6.833333333333334,-0.779,99.919945
81,1633985963.0,-0.458,-0.093,9.181,-0.048,-0.017,0.004,559.8,-48.956,17.494,-60.506,5.0,-32.9588,-60.63245,43.3,7.305555555555555,-0.093,100.94332
82,1633985964.0,-0.104,0.072,9.523,0.013,0.024,-0.001,624.8,-50.175,15.3,-58.313,5.0,-32.95882,-60.63237,43.2,7.861111111111111,0.072,103.29264
83,1633985965.0,-0.102,-0.206,10.189,0.006,0.019,0.02,508.4,-47.681,18.413,-58.838,5.0,-32.95883,-60.63229,43.3,8.555555555555555,-0.206,102.322495
84,1633985966.0,0.318,-0.623,9.825,-0.003,0.01,0.019,508.4,-49.125,18.75,-59.119,5.0,-32.95885,-60.6322,43.3,9.138888888888888,-0.623,100.36341
85,1633985967.0,-0.142,-0.848,9.377,0.001,-0.021,0.006,508.4,-47.381,17.625,-61.163,5.0,-32.95888,-60.632,43.3,9.777777777777779,-0.848,97.490715
86,1633985968.0,-0.353,-0.259,9.815,0.004,0.006,0.005,567.4,-47.663,17.625,-61.163,5.0,-32.95889,-60.6319,43.7,9.666666666666666,-0.259,97.507576
87,1633985969.0,0.03,-0.369,9.753,0.013,-0.003,-0.001,567.4,-47.7,18.413,-60.394,5.0,-32.95892,-60.63181,44.8,10.305555555555555,-0.369,99.67641
88,1633985970.0,-0.334,-0.247,9.731,0.024,-0.034,-0.014,643.5,-47.044,15.881,-61.331,5.0,-32.95893,-60.6317,45.4,10.499999999999998,-0.247,97.94872
89,1633985971.0,-0.549,-0.333,8.902,-0.005,-0.045,-0.008,643.5,-48.113,17.963,-60.694,5.0,-32.95895,-60.63158,44.9,11.083333333333332,-0.333,91.877235
90,1633985972.0,-0.363,-0.791,10.062,-0.018,0.005,-0.0,579.9,-49.5,16.556,-59.869,5.0,-32.95897,-60.63145,44.4,11.36111111111111,-0.791,95.60703
91,1633985973.0,-0.351,-1.164,9.748,-0.006,-0.035,-0.004,526.8,-48.075,16.838,-59.606,5.0,-32.959,-60.63133,45.2,11.25,-1.164,91.393776
92,1633985974.0,-0.219,-1.191,8.895,-0.002,-0.015,-0.031,526.8,-48.488,16.688,-58.65,5.0,-32.95901,-60.63123,46.3,10.75,-1.191,92.04242
93,1633985975.0,-0.272,-0.92,10.225,0.045,-0.024,0.001,654.5,-49.069,16.556,-61.125,5.0,-32.95902,-60.6311,46.4,10.666666666666666,-0.92,92.66515
94,1633985976.0,-0.674,-0.117,8.378,-0.048,0.067,-0.006,727.4,-49.369,16.706,-60.188,5.0,-32.95902,-60.6311,46.4,10.666666666666666,-0.117,93.4229
95,1633985977.0,-0.593,-0.206,9.892,-0.032,-0.027,-0.02,810.7,-48.506,17.006,-61.294,5.0,-32.95905,-60.63099,46.5,10.86111111111111,-0.206,91.64283
96,1633985978.0,-0.554,-0.41,9.865,0.006,-0.011,0.005,597.5,-47.456,15.094,-61.313,5.0,-32.95908,-60.63087,46.3,11.38888888888889,-0.41,90.57885
97,1633985979.0,-0.346,-0.475,9.705,0.007,0.031,0.001,535.2,-47.494,16.688,-61.013,5.0,-32.95911,-60.63076,46.0,11.777777777777777,-0.475,93.094345
98,1633985980.0,-0.214,-0.355,9.851,-0.015,-0.019,-0.011,481.2,-50.25,17.681,-61.875,5.0,-32.95912,-60.63064,45.7,12.055555555555555,-0.355,93.77694
99,1633985981.0,-0.418,-0.939,10.057,-0.007,-0.021,-0.003,436.4,-48.188,15.9,-59.438,5.0,-32.95914,-60.63052,46.4,12.25,-0.939,98.30988
100,1633985982.0,-0.293,-1.011,9.602,-0.003,0.004,-0.0,396.3,-48.788,16.538,-60.675,5.0,-32.95917,-60.63038,46.2,12.222222222222221,-1.011,99.97189
101,1633985983.0,-0.413,-0.695,9.724,-0.021,-0.02,0.006,442.0,-49.05,15.75,-59.888,5.0,-32.95919,-60.63026,46.4,11.972222222222223,-0.695,99.89881
102,1633985984.0,-0.329,-0.946,9.825,0.002,-0.013,-0.006,442.0,-47.363,16.838,-63.038,5.0,-32.9592,-60.63014,46.5,11.861111111111112,-0.946,105.88323
103,1633985985.0,-0.435,-0.956,9.178,-0.006,0.012,-0.007,442.0,-49.819,17.344,-61.425,5.0,-32.95922,-60.63002,46.6,11.749999999999998,-0.956,53.59859
104,1633985986.0,-0.13,-0.951,9.293,-0.01,-0.009,0.002,491.7,-48.469,15.9,-58.65,5.0,-32.95925,-60.62989,46.2,11.305555555555555,-0.951,102.18099
105,1633985987.0,0.205,-0.489,8.962,-0.013,0.026,-0.005,554.1,-49.95,21.938,-58.013,5.0,-32.95929,-60.62976,45.9,11.38888888888889,-0.489,102.34655
106,1633985988.0,-0.822,-0.697,10.484,0.041,-0.014,0.015,618.3,-47.081,17.456,-60.244,5.0,-32.95932,-60.62963,47.3,11.472222222222221,-0.697,104.13175
107,1633985989.0,-0.348,-0.582,9.36,0.013,-0.003,0.006,448.0,-49.106,17.663,-61.125,5.0,-32.95936,-60.6295,49.2,11.833333333333334,-0.582,35.36785
108,1633985990.0,-0.291,-0.939,9.592,-0.011,-0.008,0.002,498.3,-48.506,17.006,-58.969,5.0,-32.95938,-60.62937,49.4,12.25,-0.939,103.05453
109,1633985991.0,-0.286,-0.716,9.652,0.01,-0.006,0.004,498.3,-47.663,17.306,-59.138,5.0,-32.95941,-60.62924,49.2,12.11111111111111,-0.716,104.49433
110,1633985992.0,-0.633,-0.898,9.973,0.009,-0.034,-0.005,556.7,-48.506,16.688,-59.438,5.0,-32.95943,-60.62911,49.1,12.027777777777777,-0.898,102.87872
111,1633985993.0,-0.028,-0.918,9.303,-0.031,0.007,-0.01,492.3,-48.938,17.025,-60.506,5.0,-32.95946,-60.62898,49.5,12.0,-0.918,79.17416
112,1633985994.0,0.001,-0.815,10.158,-0.016,0.052,0.011,492.3,-51.881,15.338,-55.163,5.0,-32.95948,-60.62887,47.3,12.0,-0.815,96.90086
113,1633985995.0,-0.061,-1.006,9.698,0.009,-0.017,-0.001,444.0,-45.45,15.694,-60.431,5.0,-32.95951,-60.62874,48.2,11.749999999999998,-1.006,103.403114
114,1633985996.0,0.579,-1.696,9.813,-0.019,0.038,0.026,444.0,-48.244,17.475,-59.756,5.0,-32.95953,-60.62863,48.2,11.583333333333334,-1.696,101.725655
115,1633985997.0,-0.485,-1.32,9.987,0.014,-0.014,-0.01,498.6,-48.338,16.538,-58.031,5.0,-32.95955,-60.6285,48.0,11.333333333333332,-1.32,101.2965
116,1633985998.0,-0.075,-0.776,9.207,-0.026,-0.025,-0.012,498.6,-48.019,14.944,-59.588,5.0,-32.95958,-60.62838,47.9,10.972222222222221,-0.776,101.57351
117,1633985999.0,0.001,-0.848,8.524,0.025,0.056,0.012,560.5,-47.081,17.456,-60.244,5.0,-32.95961,-60.62827,47.4,10.638888888888888,-0.848,102.62978
118,1633986000.0,-0.377,-1.281,9.54,-0.02,-0.005,0.001,560.5,-47.044,16.2,-58.219,5.0,-32.95963,-60.62816,47.2,10.527777777777777,-1.281,101.481544
119,1633986001.0,-0.449,-2.336,9.6,-0.008,0.014,0.004,560.5,-46.331,15.863,-61.65,5.0,-32.95963,-60.62804,44.3,10.555555555555555,-2.336,103.09486
120,1633986002.0,-0.078,-3.026,9.463,-0.018,0.034,0.002,560.5,-48.488,16.219,-58.65,5.0,-32.95966,-60.62793,45.1,9.75,-3.026,103.19875
121,1633986003.0,-0.063,-2.374,10.287,0.013,0.014,0.006,508.6,-46.631,16.5,-61.5,5.0,-32.9597,-60.62783,45.6,8.194444444444445,-2.374,98.49104
122,1633986004.0,-0.3,-1.133,9.463,-0.005,-0.023,-0.003,457.2,-48.056,16.538,-58.819,5.0,-32.95971,-60.62775,45.0,6.25,-1.133,83.485916
123,1633986005.0,-0.65,-2.458,9.513,-0.019,-0.0,-0.006,457.2,-48.075,16.838,-59.906,5.0,-32.95972,-60.6277,43.3,5.0,-2.458,72.64793
124,1633986006.0,-0.262,-2.647,9.803,0.001,-0.013,-0.003,457.2,-49.65,16.706,-59.719,5.0,-32.95972,-60.62764,42.4,2.7777777777777777,-2.647,78.58257
125,1633986007.0,-0.272,-1.474,9.576,-0.002,-0.001,0.003,512.6,-49.331,15.919,-58.631,5.0,-32.95973,-60.62761,42.7,1.472222222222222,-1.474,75.63586
126,1633986008.0,-0.233,-1.361,9.746,0.001,-0.002,-0.002,512.6,-47.813,17.794,-59.756,5.0,-32.95973,-60.62761,42.1,0.8055555555555555,-1.361,76.97132
127,1633986009.0,-0.202,-1.049,9.844,-0.001,-0.002,-0.002,572.5,-46.369,17.756,-59.494,5.0,-32.95972,-60.62761,39.9,0.16666666666666666,-1.049,89.85763
128,1633986010.0,-0.255,0.402,9.76,0.011,-0.003,-0.001,572.5,-47.644,16.838,-60.394,5.0,-32.95972,-60.62761,42.8,0.0,0.402,65.44352
129,1633986011.0,-0.269,1.068,9.573,0.006,-0.014,0.006,572.5,-48.825,17.963,-58.031,5.0,-32.95973,-60.62761,42.5,1.4166666666666665,1.068,65.70295
130,1633986012.0,-0.226,0.702,9.691,-0.004,-0.008,0.007,572.5,-48.225,17.006,-60.225,5.0,-32.95973,-60.62758,44.2,2.972222222222222,0.702,67.67008
131,1633986013.0,-0.166,1.205,10.235,0.04,0.002,0.001,520.2,-49.8,16.875,-61.106,5.0,-32.95973,-60.62755,42.5,3.638888888888889,1.205,73.68048
132,1633986014.0,-0.241,0.749,10.035,0.031,0.021,0.008,520.2,-48.338,16.069,-60.375,5.0,-32.95973,-60.62755,42.5,3.638888888888889,0.749,88.39464
133,1633986015.0,-0.02,0.622,9.98,-0.007,0.01,-0.031,520.2,-48.113,18.431,-58.35,5.0,-32.95974,-60.6275,43.5,5.0,0.622,92.39379
134,1633986016.0,0.032,0.457,9.556,-0.011,0.012,-0.005,520.2,-49.65,16.725,-60.488,5.0,-32.95975,-60.62743,42.5,6.0,0.457,88.85219
135,1633986017.0,-0.025,-0.91,9.123,-0.051,-0.035,-0.001,520.2,-47.344,16.519,-59.925,5.0,-32.95976,-60.62738,40.1,7.166666666666667,-0.91,90.13601
136,1633986018.0,-0.205,-0.172,9.987,0.019,-0.008,0.002,520.2,-47.456,15.413,-57.431,5.0,-32.95977,-60.62728,39.0,7.888888888888888,-0.172,92.803955
137,1633986019.0,-0.102,-0.676,9.777,-0.003,0.018,0.001,520.2,-46.838,19.031,-57.15,5.0,-32.9598,-60.62719,36.6,7.944444444444445,-0.676,102.72321
138,1633986020.0,-0.047,-0.494,11.315,-0.017,-0.039,-0.026,583.8,-46.875,20.138,-57.45,5.0,-32.95981,-60.6271,36.7,8.13888888888889,-0.494,103.50261
139,1633986021.0,0.023,-0.024,10.457,-0.05,-0.01,-0.026,583.8,-49.8,16.875,-58.781,5.0,-32.95983,-60.62701,35.4,8.38888888888889,-0.024,102.7828
140,1633986022.0,-0.775,-0.286,9.944,-0.045,0.017,0.019,583.8,-47.438,15.094,-58.988,5.0,-32.95985,-60.62692,35.8,8.88888888888889,-0.286,101.67879
141,1633986023.0,-1.01,-0.491,11.329,0.01,-0.055,-0.025,522.6,-48.506,16.688,-60.994,5.0,-32.95987,-60.62683,35.2,9.444444444444445,-0.491,102.38906
142,1633986024.0,2.033,-0.791,11.106,-0.022,-0.006,0.043,587.6,-47.494,16.688,-59.775,5.0,-32.95989,-60.62672,32.4,10.277777777777777,-0.791,102.31715
143,1633986025.0,-1.572,0.942,7.899,-0.063,-0.043,-0.008,587.6,-47.306,15.263,-59.925,5.0,-32.95993,-60.62659,30.1,11.277777777777779,0.942,101.35169
144,1633986026.0,-1.177,-0.764,9.097,0.021,-0.04,0.007,587.6,-48.3,14.963,-60.675,5.0,-32.95996,-60.62646,28.7,11.944444444444445,-0.764,101.55508
145,1633986027.0,0.126,-1.78,10.654,-0.029,-0.039,0.012,587.6,-47.663,17.306,-60.694,5.0,-32.95999,-60.62635,28.4,11.944444444444445,-1.78,102.54459
146,1633986028.0,-0.845,-1.303,10.955,0.04,0.007,0.006,531.2,-46.894,16.031,-59.944,5.0,-32.96001,-60.62623,25.6,11.583333333333334,-1.303,101.07622
147,1633986029.0,0.402,-1.696,7.415,0.057,-0.013,-0.017,531.2,-46.65,17.288,-59.625,5.0,-32.96004,-60.62611,29.3,10.972222222222221,-1.696,104.06238
148,1633986030.0,1.173,-0.853,9.384,-0.06,-0.017,-0.002,531.2,-47.044,16.2,-59.775,5.0,-32.96006,-60.62599,30.0,10.666666666666666,-0.853,103.153046
149,1633986031.0,-1.738,-0.836,9.02,-0.007,0.03,-0.002,531.2,-49.031,14.963,-59.888,5.0,-32.96007,-60.62588,28.3,10.527777777777777,-0.836,101.59995
150,1633986032.0,0.04,-1.644,11.183,0.07,0.017,0.033,531.2,-47.775,16.2,-59.456,5.0,-32.96009,-60.62576,30.1,10.75,-1.644,103.21891
151,1633986033.0,0.19,-1.387,10.431,-0.008,-0.099,-0.039,531.2,-48.356,16.856,-59.906,5.0,-32.96012,-60.62565,30.8,10.833333333333334,-1.387,103.34361
152,1633986034.0,0.054,-0.403,9.391,0.001,0.026,0.038,531.2,-43.688,14.4,-56.588,5.0,-32.96014,-60.62554,31.4,10.972222222222221,-0.403,103.5649
153,1633986035.0,1.144,-1.397,9.695,0.001,-0.034,-0.004,531.2,-46.706,14.288,-59.006,5.0,-32.96017,-60.62542,31.3,11.194444444444443,-1.397,101.13465
154,1633986036.0,-0.719,-1.102,9.817,0.024,-0.084,-0.009,531.2,-47.681,17.944,-60.394,5.0,-32.96021,-60.62531,29.7,11.638888888888888,-1.102,91.45555
155,1633986037.0,0.248,-1.066,8.208,0.014,-0.005,0.012,590.3,-46.95,17.925,-59.625,5.0,-32.96023,-60.62518,28.3,12.055555555555555,-1.066,88.26111
156,1633986038.0,-0.296,-1.522,11.034,-0.062,0.064,0.01,590.3,-47.663,17.306,-59.606,5.0,-32.96025,-60.62505,27.7,12.11111111111111,-1.522,91.34242
157,1633986039.0,-0.413,-1.797,9.513,0.004,-0.001,-0.065,532.0,-47.513,16.988,-60.225,5.0,-32.96027,-60.62493,28.1,11.805555555555555,-1.797,102.22384
158,1633986040.0,-1.853,-0.439,8.842,-0.105,0.048,0.04,532.0,-44.231,18.206,-57.206,5.0,-32.96029,-60.62481,25.5,11.888888888888888,-0.439,100.99763
159,1633986041.0,0.476,-1.981,10.701,-0.051,0.018,-0.021,532.0,-46.781,16.988,-58.238,5.0,-32.96031,-60.62468,26.2,11.916666666666666,-1.981,100.18158
160,1633986042.0,0.658,-0.865,8.234,-0.069,-0.098,-0.047,532.0,-47.775,16.688,-59.756,5.0,-32.96033,-60.62454,27.2,12.0,-0.865,97.22857
161,1633986043.0,-0.356,-0.807,8.845,0.015,-0.014,-0.009,532.0,-46.275,14.288,-59.794,5.0,-32.96037,-60.6243,25.5,12.11111111111111,-0.807,98.14763
162,1633986044.0,-1.79,-0.712,9.997,0.013,0.016,0.022,532.0,-47.044,16.2,-59.006,5.0,-32.9604,-60.62415,23.8,12.527777777777779,-0.712,101.35308
163,1633986045.0,0.214,-0.606,10.668,-0.002,-0.064,-0.043,532.0,-49.331,15.45,-59.719,5.0,-32.96042,-60.62401,24.4,12.916666666666666,-0.606,100.17758
164,1633986046.0,0.897,0.254,9.264,0.039,0.06,-0.025,532.0,-47.381,17.944,-59.156,5.0,-32.96043,-60.62387,23.5,13.25,0.254,102.01537
165,1633986047.0,0.378,-0.535,10.371,0.013,-0.027,-0.022,470.8,-47.344,16.519,-58.069,5.0,-32.96046,-60.62372,21.2,13.38888888888889,-0.535,89.90727
166,1633986048.0,-1.501,-0.276,9.791,0.007,0.033,-0.002,426.0,-47.606,15.731,-59.925,5.0,-32.96049,-60.62358,21.9,13.61111111111111,-0.276,90.18381
167,1633986049.0,-0.401,-0.913,9.293,0.015,0.02,-0.002,426.0,-48.056,16.538,-59.138,5.0,-32.96051,-60.62344,22.9,13.75,-0.913,87.31805
168,1633986050.0,-0.808,-0.76,10.108,-0.023,-0.06,0.003,426.0,-46.031,15.863,-59.794,5.0,-32.96053,-60.62329,22.2,13.944444444444445,-0.76,87.86628
169,1633986051.0,-0.186,-1.157,9.963,-0.01,-0.026,0.03,426.0,-46.013,15.394,-58.238,5.0,-32.96053,-60.62329,22.2,13.944444444444445,-1.157,101.7405
170,1633986052.0,0.245,-0.769,7.738,0.006,0.005,-0.023,426.0,-47.719,14.625,-58.669,5.0,-32.96056,-60.62315,22.6,13.805555555555555,-0.769,92.622406
171,1633986053.0,0.61,-1.438,10.996,0.031,-0.007,0.003,426.0,-46.369,17.756,-59.025,5.0,-32.96058,-60.623,22.4,13.63888888888889,-1.438,92.80842
172,1633986054.0,1.386,-1.219,11.022,-0.015,-0.03,-0.043,426.0,-46.275,14.606,-58.238,5.0,-32.9606,-60.62287,20.3,13.333333333333332,-1.219,101.246506
173,1633986055.0,-1.163,-0.374,8.751,-0.009,-0.011,0.003,473.3,-49.031,15.75,-54.919,5.0,-32.96062,-60.62273,20.5,13.055555555555555,-0.374,97.56565
174,1633986056.0,-1.244,-1.651,10.965,0.045,0.101,0.051,473.3,-46.763,16.2,-58.688,5.0,-32.96065,-60.62259,21.4,12.86111111111111,-1.651,102.18472
175,1633986057.0,1.003,-2.86,10.124,-0.026,0.0,0.022,473.3,-46.631,16.819,-58.856,5.0,-32.96068,-60.62246,21.6,12.75,-2.86,102.96085
176,1633986058.0,0.301,-0.716,9.125,-0.032,0.017,-0.006,528.9,-46.669,17.606,-59.625,5.0,-32.9607,-60.62233,22.7,12.166666666666666,-0.716,103.322365
177,1633986059.0,0.938,-2.98,9.683,-0.005,-0.0,-0.02,528.9,-47.344,16.519,-59.606,5.0,-32.96072,-60.62219,22.7,11.055555555555555,-2.98,102.56341
178,1633986060.0,1.247,-2.465,9.834,-0.063,0.047,-0.019,528.9,-47.344,16.519,-58.838,5.0,-32.96074,-60.62207,23.5,10.527777777777777,-2.465,101.70452
179,1633986061.0,0.339,-2.331,11.142,0.023,0.041,0.029,528.9,-44.794,17.888,-58.125,5.0,-32.96077,-60.62198,22.4,9.166666666666666,-2.331,101.31249
180,1633986062.0,-0.979,-1.383,8.67,0.006,0.036,-0.028,588.3,-45.169,15.694,-58.106,5.0,-32.96079,-60.62189,21.1,7.861111111111111,-1.383,99.933334
181,1633986063.0,0.023,-1.536,10.304,-0.02,0.006,-0.014,588.3,-46.65,17.606,-59.175,5.0,-32.96081,-60.6218,20.1,7.444444444444445,-1.536,101.710396
182,1633986064.0,0.162,-3.148,11.108,-0.001,0.031,0.033,588.3,-48.169,15.113,-60.206,5.0,-32.96082,-60.62171,20.1,6.694444444444445,-3.148,102.76498
183,1633986065.0,-0.895,-2.497,8.84,0.004,0.001,0.028,534.5,-45.431,15.225,-59.194,5.0,-32.96082,-60.62164,21.7,5.944444444444444,-2.497,100.428505
184,1633986066.0,-0.341,-1.895,10.134,-0.006,-0.004,-0.003,534.5,-48.375,17.325,-59.119,5.0,-32.96083,-60.62159,20.6,4.388888888888889,-1.895,79.392235
185,1633986067.0,-0.186,-1.857,9.351,0.056,-0.009,-0.002,534.5,-47.363,16.838,-61.163,5.0,-32.96083,-60.62155,20.5,3.638888888888889,-1.857,96.84593
186,1633986068.0,-0.279,-1.109,9.703,0.001,-0.002,-0.004,534.5,-46.725,15.394,-58.238,5.0,-32.96084,-60.62152,20.4,2.5833333333333335,-1.109,96.881584
187,1633986069.0,-0.226,-1.042,9.88,-0.004,-0.002,0.001,600.4,-47.494,16.988,-58.219,5.0,-32.96085,-60.62149,21.4,1.8333333333333333,-1.042,88.60937
188,1633986070.0,-0.241,-1.226,9.628,-0.001,-0.008,-0.002,600.4,-46.313,15.863,-58.238,5.0,-32.96085,-60.62147,21.4,1.75,-1.226,65.48138
189,1633986071.0,-0.277,-1.718,9.578,-0.002,0.002,-0.0,600.4,-46.313,15.863,-58.238,5.0,-32.96085,-60.62146,22.1,1.3333333333333333,-1.718,65.988106
190,1633986072.0,-0.277,-1.332,9.631,-0.002,0.0,-0.002,600.4,-46.35,16.969,-57.469,5.0,-32.96085,-60.62145,21.3,0.9166666666666666,-1.332,62.100792
191,1633986073.0,-0.257,-1.047,9.856,0.001,-0.001,0.001,600.4,-47.494,16.988,-57.131,5.0,-32.96085,-60.62144,21.7,0.3611111111111111,-1.047,54.001766
192,1633986074.0,-0.207,-0.752,9.559,0.002,-0.002,-0.001,600.4,-45.619,16.969,-56.7,5.0,-32.96085,-60.62144,23.8,0.0,-0.752,44.562527
193,1633986075.0,-0.257,-1.04,9.786,0.005,-0.0,-0.001,600.4,-48.844,14.644,-51.656,5.0,-32.96085,-60.62144,24.1,0.0,-1.04,30.607985
194,1633986076.0,-0.274,-0.985,9.619,0.001,0.002,-0.0,600.4,-45.506,13.163,-55.144,5.0,-32.96085,-60.62144,24.1,0.0,-0.985,17.13666
195,1633986077.0,-0.233,-1.059,9.882,-0.001,-0.003,-0.0,600.4,-45.45,15.694,-56.081,5.0,-32.96085,-60.62144,24.1,0.0,-1.059,8.543619
196,1633986078.0,-0.231,-1.013,9.825,0.0,-0.0,-0.001,600.4,-46.725,15.075,-57.45,5.0,-32.96085,-60.62144,24.1,0.0,-1.013,8.353278
197,1633986079.0,-0.2,-0.913,9.616,0.0,-0.001,-0.0,600.4,-46.313,16.181,-56.681,5.0,-32.96085,-60.62144,24.1,0.0,-0.913,17.530542
198,1633986080.0,-0.207,-0.915,9.631,0.002,0.001,0.0,600.4,-47.344,16.838,-56.513,5.0,-32.96085,-60.62144,24.1,0.0,-0.915,31.585112
199,1633986081.0,-0.253,-0.341,9.571,0.009,-0.001,-0.001,600.4,-47.325,16.05,-57.6,5.0,-32.96085,-60.62144,24.1,0.0,-0.341,39.074486
200,1633986082.0,-0.054,0.067,9.528,-0.0,-0.001,-0.002,600.4,-48.188,16.219,-57.881,5.0,-32.96085,-60.62144,24.1,0.0,0.067,57.96327
201,1633986083.0,-0.296,-0.716,9.82,0.004,-0.002,-0.004,600.4,-47.081,17.456,-58.688,5.0,-32.96085,-60.62143,23.3,0.8611111111111112,-0.716,61.590015
202,1633986084.0,-0.26,-0.87,9.635,0.01,-0.007,-0.009,600.4,-47.756,15.9,-61.313,5.0,-32.96085,-60.62141,23.2,1.4444444444444444,-0.87,65.06435
203,1633986085.0,-0.289,-0.961,9.6,0.01,-0.002,-0.019,600.4,-49.331,15.919,-59.719,5.0,-32.96086,-60.6214,23.0,1.6944444444444442,-0.961,93.45084
204,1633986086.0,-0.212,-1.202,9.657,0.008,-0.008,-0.005,600.4,-46.706,14.606,-59.006,5.0,-32.96086,-60.62138,22.6,1.75,-1.202,94.60394
205,1633986087.0,-0.236,-1.402,9.712,-0.003,0.004,0.002,600.4,-48.056,16.538,-59.138,5.0,-32.96086,-60.62136,22.7,1.3611111111111112,-1.402,90.72149
206,1633986088.0,-0.262,-1.107,9.803,0.0,-0.001,-0.001,600.4,-46.894,15.713,-58.388,5.0,-32.96086,-60.62135,22.8,0.9722222222222222,-1.107,83.31475
207,1633986089.0,-0.219,-0.937,9.571,0.002,-0.002,-0.002,600.4,-46.05,16.181,-59.494,5.0,-32.96086,-60.62134,22.7,0.5833333333333334,-0.937,76.49293
208,1633986090.0,-0.224,-0.944,9.667,-0.001,0.001,-0.002,600.4,-47.325,16.05,-59.606,5.0,-32.96087,-60.62134,22.2,0.41666666666666663,-0.944,62.946026
209,1633986091.0,-0.19,-1.071,9.657,0.001,0.0,0.002,600.4,-46.594,15.244,-58.069,5.0,-32.96087,-60.62133,21.9,0.2777777777777778,-1.071,55.97485
210,1633986092.0,-0.198,-0.865,9.746,-0.001,-0.0,-0.0,600.4,-46.744,15.394,-60.244,5.0,-32.96086,-60.62133,21.7,0.0,-0.865,49.72618
211,1633986093.0,-0.121,-0.767,9.638,0.001,-0.002,-0.001,600.4,-46.744,15.881,-57.919,5.0,-32.96086,-60.62133,21.3,0.0,-0.767,47.38342
212,1633986094.0,-0.186,-0.74,9.717,0.0,-0.002,-0.001,600.4,-45.844,14.119,-58.875,5.0,-32.96086,-60.62133,21.3,0.0,-0.74,56.882935
213,1633986095.0,-0.183,-0.839,9.688,0.001,-0.0,-0.001,600.4,-46.294,15.075,-59.794,5.0,-32.96086,-60.62133,21.3,0.16666666666666666,-0.839,47.89072
214,1633986096.0,-0.164,-0.712,9.743,0.001,0.001,-0.0,600.4,-46.294,15.075,-59.025,5.0,-32.96086,-60.62133,21.3,0.0,-0.712,45.229885
215,1633986097.0,-0.231,-0.014,10.156,-0.0,0.004,-0.009,600.4,-45.563,14.588,-58.256,5.0,-32.96086,-60.62133,20.9,0.5,-0.014,53.67147
216,1633986098.0,-0.08,1.519,9.568,0.002,-0.005,-0.03,600.4,-46.2,16.5,-59.175,5.0,-32.96086,-60.62131,21.2,1.6666666666666665,1.519,54.84535
217,1633986099.0,-0.008,-0.069,9.772,-0.001,0.004,-0.011,600.4,-46.163,15.225,-58.406,5.0,-32.96087,-60.62128,21.3,3.3055555555555554,-0.069,66.61598
218,1633986100.0,0.311,-0.922,9.576,-0.014,0.012,-0.037,600.4,-45.45,15.694,-59.663,5.0,-32.96088,-60.62125,21.0,3.5833333333333335,-0.922,85.453064
219,1633986101.0,-0.068,-0.879,9.348,-0.007,-0.018,-0.022,600.4,-45.263,14.269,-58.256,5.0,-32.9609,-60.62122,19.6,3.4722222222222223,-0.879,85.628105
220,1633986102.0,-0.195,-1.404,9.896,0.001,-0.029,0.026,600.4,-45.975,14.288,-58.238,5.0,-32.96091,-60.62119,19.2,3.138888888888889,-1.404,87.630745
221,1633986103.0,-0.643,-1.96,9.377,-0.002,-0.01,0.06,600.4,-44.4,14.1,-58.913,5.0,-32.96091,-60.62119,19.2,3.138888888888889,-1.96,84.178535
222,1633986104.0,-0.336,-1.457,9.602,0.009,0.012,0.043,600.4,-45.45,15.694,-58.875,5.0,-32.96092,-60.62116,18.4,2.4722222222222223,-1.457,86.96001
223,1633986105.0,-0.224,-1.375,9.911,0.0,-0.006,0.035,600.4,-46.594,15.713,-59.156,5.0,-32.96092,-60.62115,20.3,1.2222222222222223,-1.375,80.015205
224,1633986106.0,-0.09,-0.92,9.552,0.0,-0.006,0.019,600.4,-45.6,16.163,-58.256,5.0,-32.96092,-60.62113,22.5,0.8333333333333333,-0.92,75.65128
225,1633986107.0,-0.308,-0.664,9.817,-0.001,0.006,0.034,600.4,-47.55,13.669,-58.05,5.0,-32.96092,-60.62112,22.3,0.4722222222222222,-0.664,71.918625
226,1633986108.0,-0.147,-0.815,9.703,-0.008,-0.004,0.052,600.4,-46.8,17.456,-59.475,5.0,-32.96092,-60.62112,23.6,0.5277777777777778,-0.815,78.68659
227,1633986109.0,-0.135,-0.17,9.94,-0.003,-0.005,0.074,600.4,-48.975,18.281,-58.95,5.0,-32.96092,-60.62111,23.4,0.75,-0.17,70.84258
228,1633986110.0,-0.236,-0.879,9.765,-0.006,-0.005,0.087,600.4,-47.138,19.031,-58.219,5.0,-32.96092,-60.6211,24.0,1.027777777777778,-0.879,69.27847
229,1633986111.0,-0.332,-0.214,9.638,0.004,-0.007,0.08,600.4,-47.025,20.306,-58.069,5.0,-32.96092,-60.62108,24.2,1.2222222222222223,-0.214,60.88966
230,1633986112.0,-0.537,-0.774,9.932,0.006,-0.005,0.152,544.3,-48.244,22.688,-56.813,5.0,-32.96092,-60.62107,24.8,1.5,-0.774,53.056355
231,1633986113.0,-1.235,-0.11,9.872,-0.009,-0.014,0.281,544.3,-47.025,25.2,-57.15,5.0,-32.96091,-60.62105,25.9,1.6944444444444442,-0.11,55.94943
232,1633986114.0,-1.809,-0.484,9.832,-0.004,-0.023,0.416,443.5,-44.175,30.825,-57.694,5.0,-32.9609,-60.62103,26.4,2.4722222222222223,-0.484,44.73409
233,1633986115.0,-2.191,0.345,9.638,-0.002,-0.025,0.416,403.1,-37.688,34.669,-56.775,5.0,-32.96088,-60.621,27.6,3.222222222222222,0.345,45.92647
234,1633986116.0,-0.478,-0.7,9.918,-0.009,-0.03,0.053,403.1,-36.281,35.438,-56.813,5.0,-32.96084,-60.62099,28.5,4.166666666666667,-0.7,30.461794
235,1633986117.0,-1.683,-0.014,9.707,-0.001,-0.047,0.229,403.1,-31.969,35.681,-57.225,5.0,-32.96081,-60.62097,29.0,4.444444444444445,-0.014,22.338526
236,1633986118.0,-0.753,-0.336,9.908,0.01,0.008,0.075,450.1,-29.644,34.219,-57.113,5.0,-32.96076,-60.62097,29.5,4.805555555555555,-0.336,7.671371
237,1633986119.0,-0.827,-0.4,10.141,-0.0,-0.021,0.011,504.0,-28.538,35.456,-58.688,5.0,-32.96071,-60.62098,29.5,5.416666666666667,-0.4,3.134159
238,1633986120.0,-0.523,-0.664,9.786,0.037,-0.005,0.013,504.0,-30.563,36.769,-56.156,5.0,-32.96066,-60.62099,29.7,5.666666666666666,-0.664,-5.283874
239,1633986121.0,-0.727,0.091,9.861,0.016,-0.009,-0.004,453.1,-26.475,34.481,-55.781,5.0,-32.96061,-60.62101,30.4,6.111111111111111,0.091,-7.2903557
240,1633986122.0,0.174,-0.958,9.664,0.002,0.018,-0.057,408.2,-30.206,38.813,-59.588,5.0,-32.96055,-60.62102,30.7,6.75,-0.958,-13.127058
241,1633986123.0,0.181,0.038,9.803,0.033,-0.004,-0.047,370.5,-30.206,39.131,-56.963,5.0,-32.96049,-60.62104,29.6,7.638888888888888,0.038,-12.890946
242,1633986124.0,-0.142,0.541,9.712,0.013,0.004,0.017,370.5,-30.863,36.769,-56.944,5.0,-32.96042,-60.62106,29.7,7.805555555555555,0.541,-17.504662
243,1633986125.0,-0.722,1.164,9.521,0.027,-0.001,0.047,414.8,-29.269,36.263,-55.575,5.0,-32.96034,-60.62107,29.4,8.944444444444445,1.164,-16.81542
244,1633986126.0,-1.213,0.175,9.908,-0.027,-0.023,0.021,414.8,-29.231,35.006,-55.575,5.0,-32.96027,-60.62109,28.0,9.138888888888888,0.175,-14.923205
245,1633986127.0,-0.449,0.464,9.674,-0.031,0.014,0.013,460.9,-26.325,34.163,-55.331,5.0,-32.96018,-60.62111,28.9,10.027777777777779,0.464,-15.737114
246,1633986128.0,-0.274,-0.312,10.069,0.024,0.032,0.011,512.2,-27.694,36.713,-57.0,5.0,-32.96007,-60.62114,29.6,11.38888888888889,-0.312,-14.155431
247,1633986129.0,-0.537,0.227,9.3,-0.027,0.001,0.011,512.2,-29.419,36.75,-58.05,5.0,-32.95997,-60.62118,29.6,12.333333333333332,0.227,-14.899092
248,1633986130.0,-0.169,0.077,9.717,0.011,-0.065,-0.03,512.2,-25.8,35.569,-55.5,5.0,-32.95986,-60.62122,30.1,13.083333333333334,0.077,-15.254518
249,1633986131.0,-0.6,-0.98,8.297,-0.02,-0.012,0.0,512.2,-28.538,36.244,-56.363,5.0,-32.95974,-60.62126,30.5,13.972222222222221,-0.98,-15.984302
250,1633986132.0,-0.6,-0.8,9.511,-0.029,-0.016,0.006,419.3,-27.45,33.075,-57.169,5.0,-32.95961,-60.6213,31.0,14.722222222222221,-0.8,-17.759348
251,1633986133.0,0.04,-0.499,9.166,0.039,0.044,0.012,419.3,-30.113,35.644,-58.819,5.0,-32.95948,-60.62134,30.5,14.666666666666666,-0.499,-15.427787
252,1633986134.0,-0.461,-0.695,9.501,-0.008,0.012,0.0,419.3,-28.688,35.944,-57.769,5.0,-32.95936,-60.62138,30.7,14.63888888888889,-0.695,-14.863722
253,1633986135.0,-0.09,-0.661,9.58,0.013,0.004,-0.007,470.4,-27.638,34.5,-58.088,5.0,-32.9591,-60.62147,31.5,14.63888888888889,-0.661,-13.621051
254,1633986136.0,-0.674,-0.599,9.485,0.0,-0.031,-0.006,470.4,-28.5,34.669,-57.15,5.0,-32.95898,-60.62151,32.2,14.583333333333332,-0.599,-17.32834
255,1633986137.0,0.159,-0.851,10.242,-0.013,0.011,0.001,424.1,-27.488,34.65,-55.613,5.0,-32.95885,-60.62156,31.6,14.527777777777777,-0.851,-15.165684
256,1633986138.0,-0.399,-1.09,10.175,0.053,-0.005,0.002,424.1,-27.188,34.013,-55.781,5.0,-32.95873,-60.6216,32.2,14.388888888888888,-1.09,-17.97407
257,1633986139.0,-0.533,-1.006,10.081,-0.031,-0.007,-0.015,424.1,-26.944,35.588,-57.338,5.0,-32.9586,-60.62165,31.0,14.222222222222223,-1.006,-21.061201
258,1633986140.0,-0.497,-1.212,10.074,0.042,0.014,0.002,424.1,-27.431,32.606,-57.619,5.0,-32.95848,-60.62169,31.3,13.833333333333332,-1.212,-18.213367
259,1633986141.0,-0.051,-0.898,9.585,0.015,0.026,0.006,376.1,-28.256,36.244,-56.381,5.0,-32.95836,-60.62173,31.4,13.527777777777779,-0.898,-13.567681
260,1633986142.0,0.09,-1.035,10.4,0.023,0.002,-0.002,506.1,-25.088,35.869,-54.731,5.0,-32.95825,-60.62178,31.4,13.25,-1.035,-12.501218
261,1633986143.0,-0.157,-1.1,9.358,-0.066,0.003,0.007,572.8,-29.325,33.263,-56.963,5.0,-32.95825,-60.62178,31.4,13.25,-1.1,-12.848259
262,1633986144.0,-0.229,-0.369,9.638,0.041,0.017,0.005,572.8,-28.238,35.456,-57.15,5.0,-32.95813,-60.62182,32.2,12.944444444444445,-0.369,-15.171199
263,1633986145.0,0.147,0.103,8.754,-0.022,0.048,0.023,519.1,-28.406,36.413,-57.3,5.0,-32.95802,-60.62186,32.1,12.75,0.103,-14.955459
264,1633986146.0,-0.152,-0.558,9.396,0.009,0.004,0.005,470.9,-27.525,35.756,-56.381,5.0,-32.9579,-60.6219,32.8,13.027777777777777,-0.558,-16.011719
265,1633986147.0,0.133,-0.654,9.494,0.02,0.017,0.01,470.9,-27.769,34.181,-58.406,5.0,-32.95778,-60.62194,34.1,13.722222222222221,-0.654,-23.120905
266,1633986148.0,-0.763,-0.745,9.571,-0.012,0.028,0.016,470.9,-28.969,35.794,-56.813,5.0,-32.95766,-60.62199,34.4,13.944444444444445,-0.745,-17.186298
267,1633986149.0,-0.193,-0.551,9.578,-0.03,-0.01,-0.007,470.9,-28.238,35.775,-56.381,5.0,-32.95754,-60.62204,34.3,13.86111111111111,-0.551,-16.193863
268,1633986150.0,-0.581,-0.788,9.643,-0.004,-0.002,0.008,470.9,-28.256,36.244,-56.381,5.0,-32.95742,-60.62207,36.6,13.805555555555555,-0.788,-15.141052
269,1633986151.0,-0.727,-0.819,9.537,0.02,-0.01,-0.003,524.6,-28.256,36.244,-58.388,5.0,-32.95731,-60.62211,38.5,13.527777777777779,-0.819,-20.282415
270,1633986152.0,-0.102,-0.676,9.521,0.008,-0.007,-0.001,470.8,-28.519,34.669,-61.481,5.0,-32.95719,-60.62215,39.6,13.38888888888889,-0.676,-11.782718
271,1633986153.0,-0.439,-0.628,10.244,-0.01,-0.001,-0.001,425.8,-28.388,35.625,-57.3,5.0,-32.95708,-60.62219,39.5,13.416666666666666,-0.628,-16.132452
272,1633986154.0,-0.698,-0.657,9.269,0.01,-0.02,-0.001,425.8,-26.775,34.65,-56.1,5.0,-32.95696,-60.62223,39.6,13.527777777777779,-0.657,-14.752557
273,1633986155.0,-0.888,-0.807,10.002,-0.009,0.01,0.017,473.7,-28.631,34.05,-57.75,5.0,-32.95684,-60.62227,39.4,13.61111111111111,-0.807,-18.065294
274,1633986156.0,-0.296,-0.999,9.798,0.019,-0.058,-0.008,473.7,-28.556,36.244,-57.15,5.0,-32.95672,-60.62232,37.9,13.777777777777779,-0.999,-15.187908
275,1633986157.0,0.08,-1.066,10.646,0.01,0.005,-0.006,473.7,-26.475,34.013,-56.569,5.0,-32.95659,-60.62236,39.3,13.75,-1.066,-17.657179
276,1633986158.0,-0.583,-0.908,9.98,0.005,-0.009,0.026,473.7,-27.206,34.8,-57.319,5.0,-32.95647,-60.6224,39.0,13.61111111111111,-0.908,-20.969362
277,1633986159.0,-0.815,-1.378,9.47,-0.041,0.02,0.043,429.4,-26.231,35.588,-56.269,5.0,-32.95636,-60.62244,38.5,13.5,-1.378,-19.494406
278,1633986160.0,-0.837,-1.097,9.377,0.015,-0.017,0.037,429.4,-23.306,33.956,-54.769,5.0,-32.95624,-60.62249,38.8,13.333333333333332,-1.097,-20.995062
279,1633986161.0,-0.375,-1.308,9.786,-0.004,-0.012,0.03,429.4,-26.306,33.375,-59.213,5.0,-32.95613,-60.62254,37.3,12.666666666666666,-1.308,-19.10806
280,1633986162.0,-0.758,-1.092,9.324,-0.003,-0.005,0.03,429.4,-25.538,36.356,-56.588,5.0,-32.95602,-60.62259,36.6,12.25,-1.092,-23.485987
281,1633986163.0,-0.293,-1.262,10.555,0.05,0.016,0.034,429.4,-24.769,34.763,-58.163,5.0,-32.95592,-60.62265,36.3,11.916666666666666,-1.262,-24.513742
282,1633986164.0,0.289,-2.345,11.607,0.109,0.036,0.017,429.4,-25.856,32.569,-56.419,5.0,-32.95582,-60.62271,36.9,11.472222222222221,-2.345,-24.844568
283,1633986165.0,-0.353,-2.043,9.755,-0.009,-0.001,0.008,478.0,-21.15,33.6,-57.469,5.0,-32.95573,-60.62276,37.9,10.944444444444445,-2.043,-27.544168
284,1633986166.0,-0.267,-1.293,9.272,0.012,-0.021,-0.0,535.6,-25.838,31.95,-59.213,5.0,-32.95565,-60.62281,37.9,9.805555555555555,-1.293,-16.288542
285,1633986167.0,0.119,-1.205,9.513,-0.0,0.007,0.0,478.8,-24.188,34.125,-58.8,5.0,-32.95557,-60.62287,38.4,9.166666666666666,-1.205,-27.276325
286,1633986168.0,-0.403,-0.235,9.559,-0.0,0.005,0.0,432.9,-23.663,36.319,-55.856,5.0,-32.9555,-60.62291,38.9,8.61111111111111,-0.235,-15.3713455
287,1633986169.0,-0.214,-0.391,10.033,0.001,-0.019,0.003,432.9,-23.006,33.0,-58.5,5.0,-32.95543,-60.62296,38.3,8.527777777777777,-0.391,-25.04526
288,1633986170.0,-0.236,-0.798,9.784,0.008,-0.007,-0.001,485.1,-24.469,34.125,-56.925,5.0,-32.95536,-60.62301,37.7,9.138888888888888,-0.798,-27.107124
289,1633986171.0,-0.291,-0.424,9.64,-0.007,-0.0,-0.013,485.1,-23.569,32.85,-57.094,5.0,-32.95529,-60.62306,38.9,9.249999999999998,-0.424,-27.483545
290,1633986172.0,-0.296,-0.353,9.99,-0.001,-0.011,-0.009,539.4,-24.863,33.338,-56.456,5.0,-32.95513,-60.62316,38.6,9.88888888888889,-0.353,-23.440022
291,1633986173.0,-0.099,-0.393,9.959,0.018,-0.035,-0.007,487.0,-23.456,34.106,-58.031,5.0,-32.95505,-60.62321,38.4,10.305555555555555,-0.393,-24.579287
292,1633986174.0,-0.269,-0.788,9.691,0.004,-0.018,0.005,487.0,-20.794,36.281,-57.169,5.0,-32.95505,-60.62321,38.4,10.305555555555555,-0.788,-29.115137
293,1633986175.0,0.107,-1.013,9.973,0.003,-0.017,-0.0,487.0,-23.269,32.363,-56.644,5.0,-32.95488,-60.62334,35.9,10.638888888888888,-1.013,-27.349367
294,1633986176.0,-0.075,-0.489,9.698,0.001,0.03,0.004,487.0,-22.125,32.344,-57.131,5.0,-32.9548,-60.6234,34.5,10.36111111111111,-0.489,-29.308428
295,1633986177.0,-0.427,-0.63,9.597,0.008,0.004,0.01,543.1,-19.838,32.944,-57.038,5.0,-32.95472,-60.62345,34.8,10.499999999999998,-0.63,-35.291405
296,1633986178.0,-0.384,-0.913,9.944,-0.005,-0.009,-0.0,543.1,-25.163,33.356,-56.906,5.0,-32.95463,-60.62351,34.7,10.833333333333334,-0.913,-31.665155
297,1633986179.0,-0.411,-0.405,9.202,-0.029,-0.008,0.005,492.6,-22.575,33.15,-56.344,5.0,-32.95454,-60.62356,34.5,10.916666666666666,-0.405,-34.86622
298,1633986180.0,-0.063,-0.807,10.282,0.004,0.031,0.009,492.6,-24.169,33.806,-56.925,5.0,-32.95445,-60.62362,33.8,10.972222222222221,-0.807,-31.638243
299,1633986181.0,-0.382,-0.793,9.571,-0.032,-0.018,0.007,492.6,-22.144,33.15,-57.131,5.0,-32.95437,-60.62368,34.4,10.86111111111111,-0.793,-34.88462
300,1633986182.0,-0.159,-0.867,9.26,-0.004,0.028,0.017,492.6,-23.438,33.0,-59.269,5.0,-32.95429,-60.62373,34.3,10.666666666666666,-0.867,-30.90355
301,1633986183.0,-0.502,-0.745,9.279,-0.003,0.009,0.017,492.6,-22.594,33.619,-60.544,5.0,-32.95429,-60.62373,34.3,10.666666666666666,-0.745,-33.48335
302,1633986184.0,-0.528,-0.846,10.199,0.007,0.001,0.009,492.6,-26.531,35.906,-58.594,5.0,-32.9542,-60.62379,34.3,10.277777777777777,-0.846,-30.55651
303,1633986185.0,-0.291,-1.001,10.682,0.038,0.016,0.02,610.7,-20.194,35.644,-56.569,5.0,-32.95411,-60.62385,34.8,10.11111111111111,-1.001,-33.031044
304,1633986186.0,-0.504,-0.408,9.533,-0.002,-0.019,0.026,610.7,-26.55,36.375,-58.894,5.0,-32.95403,-60.62391,35.1,10.027777777777779,-0.408,-33.1616
305,1633986187.0,-0.121,-0.341,9.6,0.009,0.001,-0.02,610.7,-16.238,32.888,-55.556,5.0,-32.95395,-60.62397,35.0,10.222222222222221,-0.341,-34.273453
306,1633986188.0,-0.657,-0.965,9.748,0.026,0.022,0.029,610.7,-24.731,32.869,-60.956,5.0,-32.95388,-60.62404,35.2,10.388888888888888,-0.965,-36.249866
307,1633986189.0,-0.89,-0.731,9.396,-0.031,0.009,0.041,610.7,-22.275,32.513,-58.519,5.0,-32.9538,-60.6241,35.0,10.222222222222221,-0.731,-35.823895
308,1633986190.0,-0.813,-0.994,9.19,0.01,-0.026,0.042,610.7,-19.125,28.519,-58.275,5.0,-32.95373,-60.62417,35.0,10.027777777777779,-0.994,-41.777103
309,1633986191.0,-0.15,-0.642,9.906,0.011,-0.005,0.042,683.9,-24.188,34.125,-61.125,5.0,-32.95366,-60.62424,35.1,9.75,-0.642,-44.86719
310,1633986192.0,-0.135,-0.079,9.125,-0.007,-0.021,0.025,683.9,-19.05,30.244,-58.125,5.0,-32.9536,-60.6243,35.2,9.527777777777777,-0.079,-44.51328
311,1633986193.0,-0.628,-0.455,9.58,0.03,-0.023,0.023,613.8,-17.7,33.694,-55.538,5.0,-32.95353,-60.62438,35.6,9.472222222222223,-0.455,-48.319366
312,1633986194.0,-0.576,-0.97,9.37,-0.017,0.01,0.029,682.1,-19.388,32.156,-58.594,5.0,-32.95347,-60.62445,35.5,9.777777777777779,-0.97,-55.770382
313,1633986195.0,-0.174,-1.023,9.528,-0.011,0.007,0.019,682.1,-18.75,30.394,-57.975,5.0,-32.95341,-60.62453,36.1,9.75,-1.023,-51.738686
314,1633986196.0,-0.688,-0.985,9.525,0.015,0.008,0.016,682.1,-21.3,33.769,-58.856,5.0,-32.95336,-60.6246,36.2,9.333333333333334,-0.985,-50.545322
315,1633986197.0,-0.329,-0.843,10.12,0.006,0.03,0.032,682.1,-12.806,28.875,-52.838,5.0,-32.9533,-60.62468,36.4,8.972222222222221,-0.843,-50.805374
316,1633986198.0,0.035,-0.829,10.35,0.015,0.003,0.016,607.7,-15.019,25.594,-56.513,5.0,-32.95326,-60.62475,36.3,8.63888888888889,-0.829,-55.30002
317,1633986199.0,-0.456,-0.345,10.054,0.008,0.003,0.017,537.8,-16.856,29.419,-58.181,5.0,-32.95321,-60.62482,36.8,8.694444444444445,-0.345,-56.75106
318,1633986200.0,-0.722,-0.827,10.16,-0.033,-0.017,0.018,537.8,-21.45,33.6,-60.263,5.0,-32.95316,-60.6249,37.0,8.805555555555555,-0.827,-52.891125
319,1633986201.0,-0.327,-0.891,10.223,0.037,-0.001,0.041,683.1,-15.431,24.806,-58.369,5.0,-32.95312,-60.62497,37.7,9.027777777777777,-0.891,-61.080273
320,1633986202.0,-0.399,-0.709,9.573,-0.014,-0.016,0.032,769.8,-17.006,29.269,-56.475,5.0,-32.95307,-60.62505,38.4,9.333333333333334,-0.709,-61.973675
321,1633986203.0,-0.444,-0.563,9.741,-0.018,0.007,0.032,855.5,-18.6,24.863,-59.831,5.0,-32.95301,-60.62515,39.8,9.416666666666666,-0.563,-62.96624
322,1633986204.0,-0.49,-0.475,10.189,0.018,-0.005,0.02,773.4,-16.931,26.888,-59.1,5.0,-32.95296,-60.62524,40.1,9.333333333333334,-0.475,-61.840054
323,1633986205.0,-0.497,-0.817,9.372,-0.013,0.019,0.031,773.4,-15.113,28.763,-57.6,5.0,-32.95294,-60.6253,40.5,8.972222222222221,-0.817,-63.44165
324,1633986206.0,-0.042,-1.028,9.559,0.004,0.029,0.033,699.9,-10.706,30.413,-55.688,5.0,-32.95287,-60.62544,39.6,9.472222222222223,-1.028,-66.19037
325,1633986207.0,-0.854,-2.523,9.736,0.003,-0.013,0.032,699.9,-14.194,26.531,-57.919,5.0,-32.95288,-60.62545,40.2,8.25,-2.523,-68.15331
326,1633986208.0,-0.181,-3.093,9.149,-0.009,-0.025,0.004,699.9,-13.838,28.894,-57.469,5.0,-32.95283,-60.62558,39.0,8.11111111111111,-3.093,-67.05103
327,1633986209.0,-0.435,-2.695,9.501,0.008,-0.016,-0.005,699.9,-14.325,26.381,-57.3,5.0,-32.95281,-60.62565,38.9,6.166666666666666,-2.695,-77.478096
328,1633986210.0,0.006,-2.34,9.896,0.013,-0.016,0.0,699.9,-16.088,27.356,-58.2,5.0,-32.95278,-60.62571,39.2,4.083333333333333,-2.34,-75.216194
329,1633986211.0,-0.317,-1.414,9.542,-0.006,0.015,0.004,699.9,-14.494,27.019,-58.688,5.0,-32.95277,-60.62574,39.1,1.9444444444444444,-1.414,-70.940956
330,1633986212.0,-0.241,-1.116,9.707,-0.008,0.015,0.006,699.9,-13.8,28.106,-57.469,5.0,-32.95277,-60.62575,38.9,0.6666666666666666,-1.116,-64.169426
331,1633986213.0,-0.241,-1.27,9.573,-0.0,0.016,-0.001,633.5,-13.669,27.938,-58.106,5.0,-32.95276,-60.62579,39.1,0.5,-1.27,-64.939354
332,1633986214.0,-0.157,-1.258,9.604,-0.006,0.004,-0.0,633.5,-13.35,26.831,-59.663,5.0,-32.95276,-60.6258,39.2,0.22222222222222224,-1.258,-64.7373
333,1633986215.0,-0.291,-1.001,9.75,-0.003,0.0,0.002,708.6,-14.381,27.956,-56.831,5.0,-32.95275,-60.62582,39.3,0.0,-1.001,-48.898945
334,1633986216.0,-0.255,-0.939,9.853,-0.0,-0.002,-0.003,787.6,-14.925,27.019,-57.45,5.0,-32.95275,-60.62582,39.3,0.5555555555555556,-0.939,-48.828926
335,1633986217.0,-0.245,-0.824,9.652,-0.0,-0.001,-0.0,787.6,-14.831,28.744,-56.831,5.0,-32.95273,-60.62586,39.7,0.22222222222222224,-0.824,-43.358856
336,1633986218.0,-0.209,-0.7,9.6,0.001,0.001,-0.001,787.6,-15.75,25.613,-58.05,5.0,-32.95273,-60.62587,39.9,0.25,-0.7,-37.20516
337,1633986219.0,-0.214,-0.709,9.837,0.001,0.005,0.001,787.6,-13.35,26.831,-58.875,5.0,-32.95272,-60.6259,40.1,0.0,-0.709,-26.432623
338,1633986220.0,-0.253,-0.738,9.844,-0.002,0.001,-0.001,787.6,-14.55,28.913,-57.45,5.0,-32.95272,-60.62588,40.6,0.0,-0.738,-23.580618
339,1633986221.0,-0.176,-0.724,9.724,-0.0,-0.002,0.0,787.6,-14.513,27.319,-58.706,5.0,-32.95271,-60.6259,39.0,0.16666666666666666,-0.724,-8.175534
340,1633986222.0,-0.241,-0.688,9.722,0.001,0.001,0.002,787.6,-13.088,28.088,-58.725,5.0,-32.95271,-60.62589,38.9,0.0,-0.688,-4.03465
341,1633986223.0,-0.26,-0.695,9.746,-0.001,-0.0,0.0,787.6,-15.113,28.444,-58.369,5.0,-32.9527,-60.62591,35.2,0.0,-0.695,-11.080676
342,1633986224.0,-0.267,-0.685,9.75,0.001,-0.0,-0.001,787.6,-15.788,27.188,-59.138,5.0,-32.9527,-60.62592,35.1,0.0,-0.685,2.6207001
343,1633986225.0,-0.281,-0.76,9.839,0.0,-0.001,-0.001,787.6,-14.231,27.788,-59.475,5.0,-32.9527,-60.62593,35.0,0.0,-0.76,2.4567375
344,1633986226.0,-0.181,-0.776,9.822,-0.001,-0.001,0.0,787.6,-15.731,25.294,-57.263,5.0,-32.9527,-60.62592,34.7,0.0,-0.776,-13.981922
345,1633986227.0,-0.277,-0.695,9.765,-0.0,0.002,0.001,713.8,-14.213,27.0,-59.006,5.0,-32.95271,-60.62591,34.6,0.0,-0.695,-8.679889
346,1633986228.0,-0.169,-0.693,9.609,0.001,-0.001,-0.001,713.8,-14.175,26.213,-58.238,5.0,-32.95271,-60.62591,34.5,0.0,-0.693,-13.200309
347,1633986229.0,-0.162,-0.721,9.626,0.001,-0.002,-0.0,713.8,-14.831,28.744,-56.831,5.0,-32.95271,-60.62591,34.5,0.0,-0.721,-17.249617
348,1633986230.0,-0.243,-0.714,9.822,0.0,-0.003,-0.001,713.8,-14.213,27.319,-58.706,5.0,-32.95271,-60.62591,34.5,0.0,-0.714,-7.662554
349,1633986231.0,-0.217,-0.659,9.578,-0.001,0.001,0.001,713.8,-14.194,26.531,-56.681,5.0,-32.95271,-60.62591,34.5,0.0,-0.659,-3.5075793
350,1633986232.0,-0.164,-0.74,9.731,-0.0,-0.001,-0.0,713.8,-12.769,26.981,-57.488,5.0,-32.95271,-60.62592,34.5,0.0,-0.74,-7.7380743
351,1633986233.0,-0.272,-0.702,9.669,0.001,0.002,0.001,713.8,-15.113,28.763,-58.369,5.0,-32.95271,-60.62593,34.6,0.0,-0.702,-7.447164
352,1633986234.0,-0.25,-0.752,9.935,0.0,0.002,-0.0,713.8,-13.388,28.406,-57.638,5.0,-32.9527,-60.62593,34.7,0.0,-0.752,-7.9680214
353,1633986235.0,-0.195,-0.743,9.722,0.002,0.0,-0.002,713.8,-14.138,29.213,-58.088,5.0,-32.9527,-60.62594,35.0,0.0,-0.743,-14.330241
354,1633986236.0,-0.183,-0.676,9.592,0.001,0.002,0.0,713.8,-14.475,26.531,-57.919,5.0,-32.9527,-60.62594,35.0,0.0,-0.676,-16.535295
355,1633986237.0,-0.236,-0.697,9.734,0.001,-0.0,-0.0,713.8,-15.375,27.806,-58.669,5.0,-32.9527,-60.62594,35.0,0.0,-0.697,-0.5056643
356,1633986238.0,-0.193,-0.762,9.808,0.001,-0.002,0.001,713.8,-16.144,29.719,-57.413,5.0,-32.9527,-60.62594,35.0,0.0,-0.762,-10.265233
357,1633986239.0,-0.26,-0.736,9.868,-0.0,0.0,0.0,713.8,-16.069,27.038,-57.113,5.0,-32.9527,-60.62594,35.0,0.0,-0.736,-10.471013
358,1633986240.0,-0.265,-0.745,9.889,0.001,0.001,0.0,713.8,-15.338,26.231,-57.9,5.0,-32.9527,-60.62594,35.0,0.0,-0.745,-15.768435
359,1633986241.0,-0.159,-0.695,9.633,0.001,-0.001,-0.001,713.8,-15.113,28.444,-59.625,5.0,-32.9527,-60.62595,35.0,0.0,-0.695,-9.942418
360,1633986242.0,-0.164,-0.75,9.753,0.0,-0.0,-0.0,713.8,-15.525,27.656,-58.838,5.0,-32.9527,-60.62595,34.9,0.0,-0.75,-14.564339
361,1633986243.0,-0.253,-0.688,9.722,-0.001,0.002,0.001,713.8,-14.081,27.638,-58.406,5.0,-32.9527,-60.62596,34.9,0.0,-0.688,-5.5405836
362,1633986244.0,-0.262,-0.728,9.875,0.001,-0.001,-0.0,713.8,-14.1,27.956,-58.856,5.0,-32.9527,-60.62596,34.9,0.0,-0.728,-3.2780473
363,1633986245.0,-0.241,-0.681,9.688,0.0,0.002,0.001,713.8,-16.256,27.994,-58.35,5.0,-32.9527,-60.62596,34.9,0.0,-0.681,-2.4459288
364,1633986246.0,-0.236,-0.702,9.698,0.002,-0.001,-0.001,713.8,-15.131,28.763,-58.838,5.0,-32.9527,-60.62596,34.9,0.0,-0.702,-1.1165216
365,1633986247.0,-0.19,-0.719,9.798,-0.0,-0.001,-0.0,713.8,-14.175,25.894,-58.706,5.0,-32.9527,-60.62596,34.9,0.0,-0.719,-1.942769
366,1633986248.0,-0.178,-0.743,9.748,0.001,0.002,0.002,900.3,-14.925,27.019,-57.131,5.0,-32.9527,-60.62596,34.9,0.0,-0.743,-6.335535
367,1633986249.0,-0.217,-0.755,9.841,0.0,0.002,0.001,900.3,-15.525,27.975,-59.138,5.0,-32.9527,-60.62596,34.9,0.0,-0.755,-5.3251476
368,1633986250.0,-0.202,-0.774,9.772,-0.0,-0.002,-0.001,900.3,-15.431,29.4,-58.688,5.0,-32.9527,-60.62596,34.9,0.0,-0.774,-5.320636
369,1633986251.0,-0.133,-0.671,9.559,0.001,0.006,0.003,900.3,-16.275,29.25,-56.494,5.0,-32.9527,-60.62596,34.9,0.0,-0.671,-13.61016
370,1633986252.0,-0.219,-0.757,9.884,-0.0,0.002,0.001,900.3,-16.125,28.613,-59.438,5.0,-32.9527,-60.62596,34.9,0.0,-0.757,-1.4434054
371,1633986253.0,-0.2,-0.8,9.904,-0.001,-0.002,0.0,900.3,-14.063,27.169,-58.088,5.0,-32.9527,-60.62596,34.9,0.0,-0.8,9.682706
372,1633986254.0,-0.238,-0.772,9.889,-0.0,-0.001,-0.001,817.9,-13.838,29.363,-57.469,5.0,-32.9527,-60.62596,34.9,0.0,-0.772,11.060805
373,1633986255.0,-0.195,-0.748,9.805,-0.001,-0.003,-0.001,817.9,-14.231,27.788,-59.006,5.0,-32.9527,-60.62596,34.9,0.1388888888888889,-0.748,8.475898
374,1633986256.0,-0.265,-0.784,9.918,-0.001,-0.0,-0.0,817.9,-15.544,28.444,-59.606,5.0,-32.95269,-60.62598,35.1,0.25,-0.784,5.4750843
375,1633986257.0,-0.186,-0.681,9.628,-0.001,0.001,0.001,817.9,-14.906,26.55,-56.663,5.0,-32.9527,-60.62597,35.4,0.0,-0.681,-2.8601968
376,1633986258.0,-0.243,-0.767,9.861,0.0,0.002,0.003,817.9,-14.756,26.063,-57.6,5.0,-32.9527,-60.62597,35.4,0.0,-0.767,-4.3252373
377,1633986259.0,-0.169,-0.738,9.679,0.001,0.0,0.0,736.0,-15.413,28.613,-58.219,5.0,-32.9527,-60.62597,35.4,0.0,-0.738,-10.122754
378,1633986260.0,-0.214,-0.666,9.679,0.0,-0.001,-0.001,736.0,-14.513,27.806,-57.919,5.0,-32.9527,-60.62597,35.4,0.0,-0.666,-9.524631
379,1633986261.0,-0.19,-0.661,9.628,0.002,-0.001,0.0,736.0,-14.981,28.594,-58.219,5.0,-32.9527,-60.62597,35.4,0.0,-0.661,-8.407014
380,1633986262.0,-0.166,-0.669,9.609,0.0,-0.002,0.001,818.6,-13.781,27.0,-59.025,5.0,-32.9527,-60.62597,35.4,0.0,-0.669,-14.651145
381,1633986263.0,-0.202,-0.633,9.892,0.002,0.001,0.0,818.6,-13.669,28.425,-58.406,5.0,-32.9527,-60.62598,35.4,0.0,-0.633,-14.545823
382,1633986264.0,-0.245,0.821,9.717,0.008,-0.006,0.01,818.6,-14.1,27.956,-59.644,5.0,-32.9527,-60.62599,35.5,0.7777777777777777,0.821,-51.499683
383,1633986265.0,-0.296,0.517,9.894,-0.002,-0.009,0.014,818.6,-14.4,28.744,-58.856,5.0,-32.95269,-60.62601,35.6,1.972222222222222,0.517,-54.723366
384,1633986266.0,-0.013,0.189,9.612,-0.01,-0.011,0.004,818.6,-13.781,27.319,-57.469,5.0,-32.95268,-60.62604,35.2,3.222222222222222,0.189,-58.416935
385,1633986267.0,0.004,0.536,9.973,0.005,-0.0,-0.001,742.4,-14.775,26.85,-56.831,5.0,-32.95267,-60.62608,35.2,3.638888888888889,0.536,-60.9818
386,1633986268.0,-0.109,0.043,9.609,-0.009,0.016,-0.012,672.8,-14.888,25.913,-58.219,5.0,-32.95265,-60.62613,35.3,4.222222222222222,0.043,-59.654175
387,1633986269.0,-0.14,-0.599,9.841,0.005,-0.004,-0.019,609.1,-15.563,29.231,-57.581,5.0,-32.95263,-60.62619,35.4,4.861111111111111,-0.599,-57.61176
388,1633986270.0,0.174,0.388,9.212,-0.006,0.009,-0.019,544.6,-15.825,28.463,-57.581,5.0,-32.95261,-60.62624,35.9,5.277777777777778,0.388,-59.089756
389,1633986271.0,-0.095,0.084,10.172,-0.011,-0.002,-0.012,494.1,-16.95,27.206,-58.331,5.0,-32.95261,-60.62624,35.9,5.277777777777778,0.084,-59.545483
390,1633986272.0,-0.253,-1.059,9.128,-0.017,0.005,-0.011,447.7,-16.5,26.888,-57.244,5.0,-32.95258,-60.62627,36.1,6.138888888888889,-1.059,-57.739643
391,1633986273.0,0.279,-0.168,9.331,-0.035,0.014,-0.02,447.7,-16.406,28.931,-56.644,5.0,-32.95256,-60.62633,35.8,6.25,-0.168,-56.95297
392,1633986274.0,-0.502,-0.286,9.798,0.01,-0.014,-0.016,501.0,-16.875,29.419,-58.95,5.0,-32.95253,-60.62639,35.5,6.277777777777778,-0.286,-56.77446
393,1633986275.0,-0.31,-0.309,10.115,0.001,0.006,-0.011,561.2,-17.606,30.225,-57.075,5.0,-32.95253,-60.62645,36.5,6.388888888888888,-0.309,-57.19099
394,1633986276.0,-0.257,-0.388,9.889,0.001,0.013,-0.042,561.2,-17.7,28.481,-56.456,5.0,-32.95249,-60.62651,37.0,6.861111111111111,-0.388,-60.661533
395,1633986277.0,-0.063,-0.803,9.691,0.0,0.001,-0.042,561.2,-17.606,30.225,-57.075,5.0,-32.95244,-60.62659,36.5,7.555555555555555,-0.803,-58.055004
396,1633986278.0,-0.516,-0.805,9.456,-0.006,0.009,-0.028,561.2,-18.45,29.606,-57.525,5.0,-32.95241,-60.62666,35.4,7.444444444444445,-0.805,-57.37059
397,1633986279.0,0.202,-0.851,10.385,-0.005,0.029,-0.015,508.4,-19.05,30.563,-57.825,5.0,-32.95237,-60.62673,36.3,7.166666666666667,-0.851,-53.242767
398,1633986280.0,-0.497,-0.472,9.205,0.012,-0.009,-0.027,508.4,-19.969,32.325,-58.725,5.0,-32.95234,-60.6268,35.7,7.111111111111112,-0.472,-55.00674
399,1633986281.0,-0.236,-0.393,9.928,0.007,0.013,-0.047,508.4,-20.231,31.538,-56.7,5.0,-32.95227,-60.62685,33.5,7.222222222222222,-0.393,-51.615475
400,1633986282.0,0.248,-0.795,9.465,0.009,0.015,-0.065,568.8,-20.531,32.175,-58.556,5.0,-32.95223,-60.62691,34.3,7.305555555555555,-0.795,-51.986362
401,1633986283.0,-0.272,-0.64,9.607,-0.006,-0.036,-0.035,568.8,-20.681,32.325,-58.256,5.0,-32.95219,-60.62698,34.6,7.361111111111111,-0.64,-51.15078
402,1633986284.0,0.164,-0.525,10.031,-0.001,0.002,-0.043,568.8,-21.375,31.556,-55.913,5.0,-32.95214,-60.62705,33.1,7.444444444444445,-0.525,-47.793613
403,1633986285.0,0.035,-0.41,9.458,-0.01,-0.03,-0.035,568.8,-20.831,32.494,-55.763,5.0,-32.95207,-60.62713,34.6,8.166666666666666,-0.41,-44.180725
404,1633986286.0,-0.133,-0.029,10.09,-0.001,0.003,-0.036,568.8,-23.325,34.425,-56.644,5.0,-32.95201,-60.6272,34.8,8.277777777777779,-0.029,-42.570057
405,1633986287.0,0.236,-0.736,9.868,0.026,-0.015,-0.04,568.8,-24.3,33.656,-55.838,5.0,-32.95196,-60.62727,36.4,8.833333333333334,-0.736,-40.23872
406,1633986288.0,0.311,-0.702,9.3,-0.016,-0.01,-0.069,568.8,-23.25,32.063,-57.413,5.0,-32.95189,-60.62733,36.3,9.333333333333334,-0.702,-37.67622
407,1633986289.0,0.469,-0.594,9.88,-0.002,-0.013,-0.072,568.8,-24.45,33.806,-56.156,5.0,-32.95182,-60.62739,36.3,9.361111111111112,-0.594,-32.196934
408,1633986290.0,0.121,-0.556,9.726,0.0,0.017,-0.057,568.8,-25.238,36.188,-56.138,5.0,-32.95174,-60.62744,36.7,9.472222222222223,-0.556,-29.524672
409,1633986291.0,0.406,-0.736,9.37,-0.001,0.011,-0.049,568.8,-27.956,35.606,-57.0,5.0,-32.95167,-60.62748,37.8,9.63888888888889,-0.736,-28.479609
410,1633986292.0,0.145,-1.171,9.736,0.003,-0.02,-0.017,507.3,-28.388,35.625,-55.744,5.0,-32.95159,-60.62752,38.4,9.722222222222221,-1.171,-27.280912
411,1633986293.0,0.442,-0.973,9.985,-0.015,0.02,-0.013,507.3,-26.794,34.95,-56.4,5.0,-32.9515,-60.62756,37.6,9.75,-0.973,-25.905706
412,1633986294.0,0.023,-0.841,9.607,-0.002,-0.015,-0.029,507.3,-27.788,34.65,-56.85,5.0,-32.95143,-60.62759,38.5,9.444444444444445,-0.841,-20.678408
413,1633986295.0,0.071,-0.652,9.899,0.003,0.015,-0.014,566.1,-28.631,34.519,-57.3,5.0,-32.95135,-60.62763,39.5,9.333333333333334,-0.652,-17.820671
414,1633986296.0,-0.715,-0.434,10.33,-0.012,-0.002,-0.001,566.1,-27.488,34.65,-56.081,5.0,-32.95117,-60.6277,36.9,9.722222222222221,-0.434,-19.098938
415,1633986297.0,-0.054,-0.906,9.544,-0.001,0.015,-0.017,566.1,-28.688,36.413,-57.3,5.0,-32.95109,-60.62774,36.9,10.027777777777779,-0.906,-15.725477
416,1633986298.0,-0.02,-0.963,9.638,-0.001,0.004,-0.001,566.1,-27.263,36.694,-55.463,5.0,-32.951,-60.62776,37.0,9.833333333333332,-0.963,-17.805471
417,1633986299.0,-0.43,-0.836,9.037,-0.011,-0.029,0.004,566.1,-27.938,35.288,-56.531,5.0,-32.95092,-60.62779,36.5,9.5,-0.836,-17.754513
418,1633986300.0,-0.205,-1.085,10.153,0.008,-0.003,0.001,566.1,-27.206,34.8,-55.463,5.0,-32.95084,-60.62782,36.7,9.166666666666666,-1.085,-17.62877
419,1633986301.0,-0.15,-0.75,10.156,-0.006,-0.012,-0.005,566.1,-27.638,34.5,-55.444,5.0,-32.95076,-60.62785,36.7,8.972222222222221,-0.75,-17.879011
420,1633986302.0,-0.36,-0.855,9.346,0.008,-0.002,-0.008,566.1,-28.35,34.819,-55.444,5.0,-32.95076,-60.62785,36.7,8.972222222222221,-0.855,-16.553635
421,1633986303.0,-0.444,-0.807,9.64,0.017,0.002,-0.005,636.4,-28.631,34.519,-57.3,5.0,-32.95069,-60.62787,37.2,8.722222222222221,-0.807,-16.451675
422,1633986304.0,-0.549,-0.922,9.861,-0.009,0.013,-0.007,636.4,-30.431,37.069,-56.006,5.0,-32.95062,-60.6279,36.3,8.61111111111111,-0.922,-12.144983
423,1633986305.0,-0.317,-0.669,9.755,-0.007,0.011,0.001,636.4,-26.494,34.8,-57.038,5.0,-32.95054,-60.62793,36.0,8.38888888888889,-0.669,-6.503519
424,1633986306.0,-0.703,-0.317,10.038,0.07,-0.016,0.005,636.4,-27.544,36.244,-57.638,5.0,-32.95047,-60.62795,35.7,8.11111111111111,-0.317,-11.80979
425,1633986307.0,-0.327,-0.772,9.722,-0.028,0.008,0.006,572.4,-27.956,35.606,-56.231,5.0,-32.9504,-60.62798,35.6,8.333333333333334,-0.772,-10.982943
426,1633986308.0,-0.54,-0.772,9.889,-0.006,0.001,-0.007,572.4,-30.694,36.281,-56.775,5.0,-32.95033,-60.628,35.7,8.472222222222221,-0.772,-8.125367
427,1633986309.0,-0.444,-1.042,9.691,0.004,0.013,0.006,572.4,-30.413,36.6,-56.006,5.0,-32.95026,-60.62803,36.1,8.36111111111111,-1.042,-13.475507
428,1633986310.0,-0.332,-1.214,9.951,-0.015,0.001,-0.012,572.4,-28.406,36.731,-55.444,5.0,-32.95019,-60.62805,35.8,8.25,-1.214,-10.232878
429,1633986311.0,-0.53,-0.927,9.578,0.03,0.016,-0.007,572.4,-29.081,34.838,-55.106,5.0,-32.95012,-60.62807,34.2,7.833333333333333,-0.927,-9.9503565
430,1633986312.0,-0.245,-0.889,9.863,0.007,-0.014,-0.023,572.4,-29.4,35.644,-57.75,5.0,-32.95007,-60.62809,32.5,7.527777777777778,-0.889,-7.3209076
431,1633986313.0,-0.482,-0.546,9.518,0.002,-0.021,-0.021,572.4,-31.538,35.663,-55.369,5.0,-32.95001,-60.6281,32.4,7.166666666666667,-0.546,-11.852689
432,1633986314.0,-0.121,-0.949,10.04,0.028,0.013,-0.011,519.1,-33.244,35.063,-55.95,5.0,-32.94994,-60.62812,32.7,7.333333333333333,-0.949,-12.417876
433,1633986315.0,-0.772,-1.054,9.492,-0.01,-0.014,0.035,519.1,-30.394,35.494,-58.331,5.0,-32.94988,-60.62813,32.9,7.194444444444444,-1.054,-7.723426
434,1633986316.0,-0.605,-0.103,9.729,-0.006,-0.012,0.055,519.1,-28.931,34.669,-55.275,5.0,-32.94982,-60.62814,33.2,6.888888888888889,-0.103,-14.209602
435,1633986317.0,-1.046,-0.767,9.394,-0.026,-0.017,0.049,519.1,-28.425,37.519,-54.356,5.0,-32.94975,-60.62816,33.2,6.833333333333334,-0.767,-10.900277
436,1633986318.0,-1.067,-0.894,9.841,-0.017,0.013,0.039,519.1,-28.988,36.581,-56.363,5.0,-32.94969,-60.62819,34.5,7.055555555555555,-0.894,-16.861792
437,1633986319.0,-1.034,-0.523,9.406,-0.042,-0.041,0.054,519.1,-42.806,23.7,-56.625,5.0,-32.94962,-60.62822,33.6,6.944444444444445,-0.523,-26.077757
438,1633986320.0,-0.854,-0.489,9.935,0.017,-0.018,0.069,578.8,-40.425,38.981,-63.694,5.0,-32.94955,-60.62825,33.9,7.0,-0.489,-23.908226
439,1633986321.0,-0.396,-0.388,10.064,0.017,-0.036,0.001,647.5,-27.075,34.969,-55.631,5.0,-32.94949,-60.62829,32.0,7.222222222222222,-0.388,-24.7674
440,1633986322.0,0.466,-0.805,9.509,-0.026,0.011,-0.024,647.5,-26.231,35.588,-58.125,5.0,-32.94943,-60.62834,32.5,7.527777777777778,-0.805,-29.229918
441,1633986323.0,0.435,-0.795,9.621,0.021,0.017,-0.064,647.5,-30.488,38.663,-56.794,5.0,-32.94937,-60.62838,31.9,7.722222222222222,-0.795,-30.255384
442,1633986324.0,0.279,-0.915,9.173,0.054,-0.03,-0.049,647.5,-21.356,30.45,-60.244,5.0,-32.9493,-60.62843,30.2,7.944444444444445,-0.915,-24.620148
443,1633986325.0,-0.162,-1.174,9.619,-0.066,-0.047,0.005,647.5,-16.294,33.206,-67.519,5.0,-32.94923,-60.62847,30.1,7.916666666666666,-1.174,-26.73955
444,1633986326.0,-0.559,-2.199,9.312,0.006,-0.046,-0.024,647.5,-23.25,32.044,-52.913,5.0,-32.94916,-60.6285,30.6,7.722222222222222,-2.199,-24.984985
445,1633986327.0,-0.219,-2.468,9.767,0.03,0.016,-0.018,647.5,-23.531,32.063,-53.213,5.0,-32.9491,-60.62852,31.1,7.222222222222222,-2.468,-26.533705
446,1633986328.0,0.059,-1.021,9.267,0.026,0.002,-0.045,587.3,-25.444,33.206,-56.588,5.0,-32.94905,-60.62854,31.1,4.916666666666666,-1.021,-19.140436
447,1633986329.0,-0.217,0.754,10.064,-0.056,-0.033,0.006,531.6,-24.113,46.594,-55.406,5.0,-32.94901,-60.62855,31.0,3.7222222222222223,0.754,-17.45587
448,1633986330.0,-0.051,1.064,9.875,0.002,0.048,0.003,479.7,-21.413,32.813,-55.594,5.0,-32.94898,-60.62857,30.9,4.472222222222222,1.064,-20.101809
449,1633986331.0,0.174,-1.188,10.462,-0.042,0.018,-0.005,479.7,-19.181,34.05,-64.65,5.0,-32.94893,-60.62858,30.8,6.0,-1.188,-18.11283
450,1633986332.0,0.166,-1.092,10.747,0.026,-0.015,0.006,479.7,-26.4,31.631,-55.781,5.0,-32.94887,-60.62861,31.0,6.861111111111111,-1.092,-18.946947
451,1633986333.0,-0.231,-1.212,10.22,0.021,0.004,0.004,479.7,-22.819,32.363,-54.788,5.0,-32.94881,-60.62863,30.9,6.666666666666666,-1.212,-19.523771
452,1633986334.0,-0.612,-1.522,9.176,-0.02,-0.009,0.008,542.2,-27.206,35.906,-44.588,5.0,-32.94875,-60.62864,30.8,6.555555555555555,-1.522,-22.038618
453,1633986335.0,-0.209,-1.332,9.003,-0.015,-0.022,-0.015,542.2,-23.756,34.594,-54.619,5.0,-32.9487,-60.62866,31.3,5.777777777777778,-1.332,-18.590105
454,1633986336.0,-0.224,-1.385,10.009,-0.039,-0.013,0.005,486.7,-32.925,39.788,-47.888,5.0,-32.94866,-60.62868,31.1,5.111111111111111,-1.385,-18.484108
455,1633986337.0,-0.32,-0.815,8.584,0.083,0.018,0.009,486.7,-24.788,31.444,-50.231,5.0,-32.94862,-60.62869,30.9,4.472222222222222,-0.815,-13.742588
456,1633986338.0,-0.379,-2.987,10.764,-0.043,0.024,-0.015,486.7,-30.263,31.219,-55.238,5.0,-32.94857,-60.6287,32.6,4.527777777777778,-2.987,-14.741488
457,1633986339.0,0.828,0.215,8.701,-0.008,0.021,-0.018,486.7,-26.738,33.375,-59.194,5.0,-32.94853,-60.62872,32.5,4.833333333333333,0.215,-17.75949
458,1633986340.0,-1.072,-0.242,8.795,-0.045,-0.126,-0.026,545.1,-31.444,32.194,-56.138,5.0,-32.94848,-60.62873,33.2,4.833333333333333,-0.242,-19.815302
459,1633986341.0,-0.767,-2.022,9.949,0.005,-0.033,-0.013,613.1,-25.05,33.994,-62.044,5.0,-32.94844,-60.62875,32.8,5.305555555555556,-2.022,-19.174381
460,1633986342.0,1.489,-1.452,12.285,-0.01,0.017,-0.0,613.1,-27.356,29.925,-59.494,5.0,-32.94839,-60.62876,33.3,5.222222222222222,-1.452,-18.62021
461,1633986343.0,-1.627,-1.701,9.226,0.044,0.124,0.041,613.1,-25.294,48.188,-46.519,5.0,-32.94835,-60.62878,33.6,4.916666666666666,-1.701,-20.091654
462,1633986344.0,0.646,-0.736,9.494,0.032,0.046,0.002,554.0,-29.963,30.9,-52.744,5.0,-32.94831,-60.62879,33.2,4.555555555555555,-0.736,-21.021303
463,1633986345.0,-0.624,-0.218,9.19,0.003,-0.008,0.024,554.0,-26.456,33.694,-57.338,5.0,-32.94827,-60.62881,32.6,4.222222222222222,-0.218,-20.554419
464,1633986346.0,-0.399,-0.218,10.333,-0.037,0.002,0.031,554.0,-26.306,28.163,-63.544,5.0,-32.94823,-60.62882,32.6,4.638888888888888,-0.218,-21.901857
465,1633986347.0,-0.315,-0.158,9.489,0.02,0.001,0.05,554.0,-28.125,26.306,-61.631,5.0,-32.94815,-60.62885,32.5,5.722222222222222,-0.158,-23.830038
466,1633986348.0,-0.554,-1.632,9.6,-0.013,0.02,0.042,554.0,-24.094,25.763,-65.606,5.0,-32.9481,-60.62887,31.8,5.75,-1.632,-25.118784
467,1633986349.0,-0.478,-1.651,8.893,0.004,-0.016,0.008,554.0,-23.156,28.106,-64.088,5.0,-32.94805,-60.6289,32.0,4.805555555555555,-1.651,-24.617414
468,1633986350.0,-0.253,-0.307,8.546,0.028,-0.035,0.048,554.0,-22.556,51.319,-61.669,5.0,-32.94801,-60.62892,32.1,4.361111111111111,-0.307,-26.020926
469,1633986351.0,-1.503,-0.165,9.978,-0.048,0.051,0.023,554.0,-24.394,32.231,-54.6,5.0,-32.94798,-60.62894,32.7,4.222222222222222,-0.165,-31.177143
470,1633986352.0,-1.043,-0.379,10.235,-0.004,-0.011,0.061,554.0,-20.475,30.263,-57.788,5.0,-32.94794,-60.62897,32.5,4.444444444444445,-0.379,-29.710974
471,1633986353.0,-0.743,-1.128,9.561,0.036,0.021,0.041,554.0,-19.406,26.944,-68.363,5.0,-32.94791,-60.629,33.0,4.722222222222222,-1.128,-35.4832
472,1633986354.0,-0.597,-0.523,10.035,-0.002,0.038,0.039,554.0,-22.838,31.275,-69.375,5.0,-32.94787,-60.62903,31.8,4.944444444444445,-0.523,-34.785774
473,1633986355.0,-2.035,-0.879,9.049,0.019,0.03,0.075,554.0,-21.863,52.406,-63.075,5.0,-32.94783,-60.62907,31.7,5.194444444444444,-0.879,-37.11487
474,1633986356.0,-0.253,-0.649,9.691,0.007,-0.095,0.004,617.5,-22.275,42.3,-58.069,5.0,-32.94779,-60.62911,31.8,5.333333333333333,-0.649,-38.310688
475,1633986357.0,-0.463,-0.693,9.753,-0.033,-0.064,0.025,701.6,-23.119,27.0,-64.088,5.0,-32.94779,-60.62911,31.8,5.333333333333333,-0.693,-39.34389
476,1633986358.0,-1.101,-0.357,9.832,-0.011,-0.104,0.022,779.7,-19.181,24.413,-68.513,5.0,-32.94776,-60.62915,31.2,5.361111111111112,-0.357,-39.31471
477,1633986359.0,-0.564,-0.74,9.99,0.02,-0.064,0.028,779.7,-15.075,26.869,-63.506,5.0,-32.94772,-60.62919,31.8,5.444444444444445,-0.74,-41.708256
478,1633986360.0,-0.84,-1.116,9.346,0.024,-0.18,-0.059,779.7,-12.975,27.938,-71.925,5.0,-32.94769,-60.62924,31.4,5.416666666666667,-1.116,-43.893505
479,1633986361.0,-0.212,-1.071,8.9,0.044,-0.046,0.007,779.7,-17.7,32.438,-65.925,5.0,-32.94766,-60.62928,31.6,5.361111111111112,-1.071,-41.394596
480,1633986362.0,-0.171,0.034,9.166,0.024,-0.012,0.012,779.7,-14.7,42.975,-61.05,5.0,-32.94762,-60.62932,31.6,5.277777777777778,0.034,-47.02398
481,1633986363.0,-0.037,-0.329,10.117,0.023,0.011,0.042,779.7,-18.394,32.456,-59.4,5.0,-32.94759,-60.62937,31.8,5.638888888888889,-0.329,-46.471508
482,1633986364.0,0.023,0.601,7.793,-0.099,0.021,0.013,779.7,-13.481,30.319,-68.513,5.0,-32.94756,-60.62942,32.1,6.111111111111111,0.601,-50.116123
483,1633986365.0,-0.152,-0.563,10.491,-0.096,0.078,0.021,779.7,-16.013,25.144,-53.531,5.0,-32.94752,-60.62947,31.5,6.611111111111111,-0.563,-36.899334
484,1633986366.0,-0.888,-0.839,10.113,-0.024,0.026,0.026,702.6,-17.344,30.694,-61.125,5.0,-32.94748,-60.62953,31.3,7.583333333333333,-0.839,-51.255882
485,1633986367.0,-0.509,-0.829,9.861,0.001,-0.026,-0.003,634.0,-17.85,23.756,-61.406,5.0,-32.94744,-60.6296,31.2,8.305555555555555,-0.829,-62.03761
486,1633986368.0,-0.868,0.251,10.548,-0.021,-0.015,0.031,634.0,-11.644,37.538,-54.431,5.0,-32.94739,-60.62968,30.8,8.63888888888889,0.251,-52.81386
487,1633986369.0,0.226,-0.266,9.437,0.023,-0.034,-0.023,714.3,-20.25,37.688,-49.256,5.0,-32.94734,-60.62976,30.4,9.527777777777777,-0.266,-53.77654
488,1633986370.0,-0.097,-0.182,10.218,-0.013,0.02,-0.037,714.3,-26.663,31.163,-54.075,5.0,-32.94729,-60.62984,30.6,10.333333333333334,-0.182,-53.431297
489,1633986371.0,0.099,-0.781,10.045,0.044,-0.038,-0.017,808.3,-24.188,30.019,-53.663,5.0,-32.94723,-60.62993,30.4,10.916666666666666,-0.781,-54.89343
490,1633986372.0,-0.981,-0.798,9.796,0.044,0.065,0.021,808.3,-23.344,26.213,-51.656,5.0,-32.94717,-60.63002,30.4,11.13888888888889,-0.798,-36.823032
491,1633986373.0,0.214,-1.565,9.307,-0.032,-0.003,-0.015,808.3,-23.213,26.044,-54.15,5.0,-32.9471,-60.63012,30.2,11.11111111111111,-1.565,-53.28539
492,1633986374.0,-0.3,-1.073,9.583,0.026,0.02,0.006,808.3,-21.019,24.75,-54.656,5.0,-32.94704,-60.63022,30.6,10.86111111111111,-1.073,-47.673695
493,1633986375.0,-0.528,-0.745,9.978,-0.068,-0.002,0.009,808.3,-17.813,27.863,-54.731,5.0,-32.94698,-60.63031,30.4,10.611111111111112,-0.745,-56.10252
494,1633986376.0,-0.277,-0.614,9.413,-0.02,-0.034,-0.015,808.3,-17.981,27.713,-62.194,5.0,-32.94692,-60.63041,30.6,10.527777777777777,-0.614,-54.23223
495,1633986377.0,-0.423,-3.536,9.963,0.007,0.001,-0.001,651.7,-15.506,32.4,-54.806,5.0,-32.94687,-60.63048,30.8,9.972222222222221,-3.536,-52.461937
496,1633986378.0,-0.502,-2.376,8.754,0.031,0.004,-0.019,585.0,-13.744,29.531,-71.138,5.0,-32.94682,-60.63055,30.4,8.86111111111111,-2.376,-56.12186
497,1633986379.0,0.044,-1.135,9.865,0.011,0.022,-0.017,585.0,-19.425,29.306,-54.544,5.0,-32.94678,-60.63061,30.3,6.499999999999999,-1.135,-49.613636
498,1633986380.0,-0.262,-0.63,9.631,0.052,-0.017,-0.018,585.0,-19.331,25.35,-59.513,5.0,-32.94675,-60.63067,29.6,5.472222222222222,-0.63,-50.504307
499,1633986381.0,-0.595,0.34,10.052,0.001,0.014,-0.027,585.0,-22.538,23.044,-49.331,5.0,-32.94673,-60.63071,29.5,5.027777777777778,0.34,-48.84063
500,1633986382.0,0.037,0.28,10.692,-0.003,-0.029,-0.051,585.0,-22.013,28.875,-55.256,5.0,-32.94669,-60.63076,29.8,5.888888888888888,0.28,-41.30542
501,1633986383.0,-0.907,-0.946,10.534,-0.014,0.007,-0.029,585.0,-18.825,41.306,-64.988,5.0,-32.94664,-60.63082,29.7,6.861111111111111,-0.946,-47.519978
502,1633986384.0,-0.119,0.63,10.867,0.028,-0.022,-0.033,651.2,-19.95,27.881,-51.9,5.0,-32.94659,-60.63087,29.8,7.972222222222221,0.63,-45.983536
503,1633986385.0,-0.123,0.776,9.999,0.014,-0.011,-0.025,587.5,-26.363,30.056,-57.019,5.0,-32.94653,-60.63094,29.7,8.416666666666666,0.776,-48.476536
504,1633986386.0,-0.47,0.069,11.344,-0.053,-0.017,-0.015,534.0,-23.756,34.594,-52.594,5.0,-32.94647,-60.631,28.8,9.388888888888888,0.069,-46.789112
505,1633986387.0,-0.253,-0.546,9.437,0.046,-0.032,-0.022,672.5,-24.675,32.081,-48.225,5.0,-32.9464,-60.63107,29.0,10.277777777777777,-0.546,-44.110706
506,1633986388.0,-0.293,-1.001,11.387,0.012,0.011,0.016,672.5,-21.375,32.325,-49.069,5.0,-32.94632,-60.63114,28.9,10.666666666666666,-1.001,-44.337166
507,1633986389.0,-0.444,-0.968,9.106,0.016,-0.008,0.001,672.5,-19.931,31.519,-53.756,5.0,-32.94625,-60.63123,29.3,10.86111111111111,-0.968,-40.164616
508,1633986390.0,0.19,-1.186,8.282,-0.05,-0.024,0.005,486.9,-19.069,26.925,-54.863,5.0,-32.9461,-60.63138,28.5,10.555555555555555,-1.186,-42.58315
509,1633986391.0,0.267,-0.889,9.434,-0.02,0.054,-0.001,486.9,-18.188,25.969,-55.031,5.0,-32.94603,-60.63145,29.5,10.333333333333334,-0.889,-43.356236
510,1633986392.0,-1.338,-0.403,11.317,0.045,-0.024,0.049,486.9,-17.569,28.181,-67.481,5.0,-32.94596,-60.63152,29.0,10.388888888888888,-0.403,-43.480225
511,1633986393.0,-0.631,-0.081,9.137,-0.053,0.024,-0.002,342.2,-18.563,27.094,-73.669,5.0,-32.94589,-60.6316,29.5,10.944444444444445,-0.081,-44.22015
512,1633986394.0,0.066,-1.322,8.498,-0.081,-0.012,0.016,307.5,-13.106,31.894,-72.413,5.0,-32.94581,-60.63168,29.4,11.11111111111111,-1.322,-40.211796
513,1633986395.0,-0.212,-0.898,9.42,-0.02,-0.007,-0.057,314.4,-16.763,38.756,-79.481,5.0,-32.94574,-60.63176,29.2,10.666666666666666,-0.898,-38.684124
514,1633986396.0,-0.559,-1.083,9.145,0.027,0.09,0.009,401.3,-19.369,39.581,-78.638,5.0,-32.94566,-60.63184,29.7,10.777777777777777,-1.083,-38.59213
515,1633986397.0,-1.089,0.625,11.204,0.024,0.076,0.019,401.3,-23.963,42.319,-49.181,5.0,-32.94559,-60.63191,29.6,10.694444444444445,0.625,-40.364307
516,1633986398.0,0.164,-0.913,8.634,-0.031,-0.066,-0.004,501.5,-22.594,33.619,-58.669,5.0,-32.94552,-60.63199,29.6,10.583333333333334,-0.913,-40.880405
517,1633986399.0,0.162,-1.293,9.832,0.018,0.041,0.013,501.5,-24.413,32.55,-57.694,5.0,-32.94544,-60.63207,29.8,10.833333333333334,-1.293,-43.125217
518,1633986400.0,1.724,0.196,10.977,0.008,0.059,-0.005,501.5,-21.15,33.6,-57.938,5.0,-32.94537,-60.63214,30.0,10.972222222222221,0.196,-36.889557
519,1633986401.0,-0.277,0.019,8.1,0.046,-0.089,-0.032,369.4,-24.806,35.869,-59.4,5.0,-32.94529,-60.63222,30.7,11.25,0.019,-37.674908
520,1633986402.0,-0.423,-1.1,10.103,0.005,-0.068,-0.017,369.4,-22.444,28.106,-62.869,5.0,-32.94521,-60.6323,31.3,11.61111111111111,-1.1,-37.643032
521,1633986403.0,0.914,-1.092,9.875,0.054,0.047,0.019,369.4,-23.25,26.381,-64.556,5.0,-32.94513,-60.63239,31.9,11.583333333333334,-1.092,-39.59554
522,1633986404.0,-0.835,-0.874,10.888,0.012,0.002,0.009,412.0,-20.494,25.688,-64.144,5.0,-32.94506,-60.63247,32.2,11.333333333333332,-0.874,-36.867455
523,1633986405.0,-0.849,-0.396,9.391,-0.143,0.015,0.017,463.2,-21.675,26.513,-65.663,5.0,-32.94506,-60.63247,32.2,11.333333333333332,-0.396,-48.494717
524,1633986406.0,0.056,-0.455,9.255,0.003,-0.054,-0.043,522.1,-28.125,26.306,-60.863,5.0,-32.94499,-60.63255,32.4,11.11111111111111,-0.455,-36.631466
525,1633986407.0,0.008,-0.891,9.683,0.013,-0.059,-0.011,522.1,-26.925,24.694,-65.081,5.0,-32.94491,-60.63263,32.4,11.166666666666668,-0.891,-33.804974
526,1633986408.0,-0.815,-1.293,10.965,0.004,-0.047,-0.035,587.1,-23.85,27.338,-66.394,5.0,-32.94483,-60.63271,32.5,10.916666666666666,-1.293,-34.35447
527,1633986409.0,0.231,-0.635,8.15,0.047,-0.044,-0.001,528.6,-22.631,24.169,-74.025,5.0,-32.94477,-60.63277,29.5,10.611111111111112,-0.635,-34.459618
528,1633986410.0,-0.767,-0.776,9.782,0.035,0.002,0.025,421.8,-22.238,29.85,-77.306,5.0,-32.94469,-60.63285,31.1,10.611111111111112,-0.776,-40.472263
529,1633986411.0,-1.127,-1.078,11.001,0.078,0.021,0.014,421.8,-9.244,41.775,-73.444,5.0,-32.94461,-60.63292,31.7,10.777777777777777,-1.078,-40.72215
530,1633986412.0,0.243,-0.764,10.256,0.02,0.017,-0.008,477.0,-13.275,43.425,-62.475,5.0,-32.94454,-60.633,32.2,10.972222222222221,-0.764,-40.72923
531,1633986413.0,-0.648,-0.946,11.554,-0.02,-0.041,-0.038,536.7,-12.0,38.981,-65.606,5.0,-32.94448,-60.63309,32.8,11.055555555555555,-0.946,-38.366962
532,1633986414.0,-0.372,-0.4,9.257,-0.076,0.029,0.008,434.0,-18.281,37.35,-69.956,5.0,-32.9444,-60.63317,33.3,11.11111111111111,-0.4,-38.686863
533,1633986415.0,0.756,-0.271,10.064,0.01,-0.044,-0.035,559.5,-19.256,31.988,-66.056,5.0,-32.94433,-60.63325,33.1,11.472222222222221,-0.271,-40.049465
534,1633986416.0,-0.396,-0.168,7.427,-0.058,0.128,0.052,559.5,-17.738,29.588,-62.981,5.0,-32.94424,-60.63333,33.8,12.027777777777777,-0.168,-40.199036
535,1633986417.0,-0.585,-0.865,9.535,0.025,-0.027,-0.033,478.7,-19.969,27.9,-58.106,5.0,-32.94415,-60.63342,34.2,12.277777777777779,-0.865,-40.31748
536,1633986418.0,-0.794,-1.771,9.911,-0.006,-0.004,-0.053,409.3,-19.163,29.925,-55.95,5.0,-32.94406,-60.6335,34.6,12.36111111111111,-1.771,-40.16147
537,1633986419.0,-0.078,-3.124,9.753,0.032,0.021,-0.026,367.8,-22.144,33.15,-58.988,5.0,-32.94397,-60.63357,35.5,12.027777777777777,-3.124,-36.138313
538,1633986420.0,-1.127,-2.525,9.638,0.024,-0.029,0.021,411.4,-23.194,29.381,-61.294,5.0,-32.94389,-60.63364,35.9,10.222222222222221,-2.525,-30.113222
539,1633986421.0,1.437,-2.264,9.954,0.046,-0.026,-0.061,411.4,-23.4,38.213,-41.738,5.0,-32.94383,-60.6337,36.0,8.222222222222223,-2.264,-22.960659
540,1633986422.0,-0.576,-3.114,9.892,-0.03,-0.03,-0.041,457.3,-17.306,29.269,-63.769,5.0,-32.94378,-60.63373,35.9,6.027777777777778,-3.114,-20.613884
541,1633986423.0,-0.468,-2.789,9.571,0.005,0.001,-0.012,457.3,-25.369,26.081,-55.331,5.0,-32.94375,-60.63376,35.6,3.9722222222222223,-2.789,-7.5286856
542,1633986424.0,-0.49,-1.486,9.621,0.001,0.0,-0.001,457.3,-23.888,24.806,-54.581,5.0,-32.94373,-60.63377,35.2,1.5277777777777777,-1.486,14.249448
543,1633986425.0,-0.447,-0.647,9.683,0.002,0.001,0.001,457.3,-26.025,24.038,-54.544,5.0,-32.94372,-60.63376,37.5,0.19444444444444442,-0.647,18.476694
544,1633986426.0,-0.435,-0.599,9.638,0.0,-0.0,0.0,457.3,-24.9,24.506,-55.35,5.0,-32.94371,-60.63376,38.8,0.0,-0.599,20.453472
545,1633986427.0,-0.475,-0.671,9.75,0.0,-0.0,-0.0,457.3,-24.675,26.7,-56.438,5.0,-32.94371,-60.63376,40.4,0.1388888888888889,-0.671,23.959162
546,1633986428.0,-0.43,-0.633,9.683,0.001,0.0,0.0,457.3,-25.369,26.081,-53.006,5.0,-32.94371,-60.63375,37.3,0.19444444444444442,-0.633,23.44578
547,1633986429.0,-0.47,-0.671,9.815,0.0,-0.0,-0.0,457.3,-25.931,25.781,-53.138,5.0,-32.94372,-60.63375,36.4,0.3333333333333333,-0.671,19.220911
548,1633986430.0,-0.487,-0.676,9.87,0.001,-0.001,0.001,457.3,-26.663,26.269,-55.144,5.0,-32.94372,-60.63375,34.9,0.0,-0.676,16.82712
549,1633986431.0,-0.435,-0.602,9.614,0.001,0.001,0.0,457.3,-26.494,25.631,-54.844,5.0,-32.94372,-60.63375,34.9,0.0,-0.602,16.155535
550,1633986432.0,-0.435,-0.625,9.743,-0.001,-0.0,0.0,457.3,-23.813,27.0,-54.45,5.0,-32.94372,-60.63375,34.9,0.0,-0.625,16.351587
551,1633986433.0,-0.415,-0.59,9.6,0.0,0.001,0.001,457.3,-26.644,25.481,-53.588,5.0,-32.94372,-60.63375,34.9,0.0,-0.59,17.494883
552,1633986434.0,-0.435,-0.599,9.645,0.001,-0.002,0.001,457.3,-25.35,25.294,-53.775,5.0,-32.94372,-60.63375,34.9,0.0,-0.599,15.944564
553,1633986435.0,-0.437,-0.618,9.681,0.001,-0.002,-0.001,457.3,-24.788,25.763,-53.944,5.0,-32.94372,-60.63375,34.9,0.0,-0.618,13.170985
554,1633986436.0,-0.451,-0.57,9.633,0.001,0.001,0.001,457.3,-26.288,28.163,-53.138,5.0,-32.94372,-60.63375,34.9,0.0,-0.57,13.607869
555,1633986437.0,-0.463,-0.661,9.872,0.001,-0.001,0.0,457.3,-25.913,24.994,-54.394,5.0,-32.94372,-60.63375,34.9,0.0,-0.661,15.241412
556,1633986438.0,-0.482,-0.683,9.868,0.001,-0.001,-0.001,457.3,-24.9,24.506,-55.65,5.0,-32.94372,-60.63375,34.9,0.0,-0.683,12.336288
557,1633986439.0,-0.425,-0.573,9.58,-0.001,0.0,0.0,457.3,-25.669,26.719,-53.775,5.0,-32.94372,-60.63375,34.9,0.0,-0.573,12.639758
558,1633986440.0,-0.437,-0.594,9.631,0.002,0.001,0.002,457.3,-24.45,24.169,-55.5,5.0,-32.94372,-60.63375,34.9,0.0,-0.594,12.050371
559,1633986441.0,-0.435,-0.604,9.714,0.001,-0.002,-0.0,457.3,-25.444,23.869,-52.838,5.0,-32.94372,-60.63375,34.9,0.0,-0.604,18.508797
560,1633986442.0,-0.449,-0.635,9.832,-0.001,-0.0,-0.001,457.3,-25.5,25.463,-55.481,5.0,-32.94372,-60.63375,34.9,0.0,-0.635,16.633955
561,1633986443.0,-0.497,-0.676,9.889,-0.002,-0.001,0.001,457.3,-24.563,23.231,-54.113,5.0,-32.94372,-60.63375,34.9,0.0,-0.676,12.297973
562,1633986444.0,-0.449,-0.642,9.851,-0.001,-0.001,0.001,457.3,-24.581,23.7,-56.438,5.0,-32.94372,-60.63375,34.9,0.0,-0.642,16.186556
563,1633986445.0,-0.43,-0.599,9.707,0.001,-0.002,-0.0,457.3,-26.888,23.906,-54.675,5.0,-32.94373,-60.63375,31.0,0.0,-0.599,19.011002
564,1633986446.0,-0.449,-0.681,9.875,0.001,0.001,0.001,457.3,-26.175,24.675,-53.906,5.0,-32.94373,-60.63375,31.0,0.0,-0.681,17.65656
565,1633986447.0,-0.432,-0.592,9.612,-0.001,-0.001,0.001,457.3,-26.475,24.525,-54.525,5.0,-32.94373,-60.63375,31.1,0.0,-0.592,21.656576
566,1633986448.0,-0.415,-0.582,9.681,0.001,0.0,-0.0,457.3,-25.913,24.994,-53.606,5.0,-32.94373,-60.63375,31.1,0.0,-0.582,21.190252
567,1633986449.0,-0.425,-0.594,9.65,0.0,0.0,0.001,457.3,-25.931,25.781,-53.925,5.0,-32.94373,-60.63375,31.1,0.0,-0.594,20.6445
568,1633986450.0,-0.468,-0.683,9.865,0.001,-0.001,0.001,457.3,-24.9,24.825,-54.094,5.0,-32.94373,-60.63375,31.1,0.0,-0.683,18.828962
569,1633986451.0,-0.463,-0.661,9.853,-0.001,-0.0,0.0,457.3,-25.388,26.719,-53.325,5.0,-32.94373,-60.63375,31.1,0.0,-0.661,18.425793
570,1633986452.0,-0.447,-0.551,9.597,0.001,0.001,0.0,457.3,-25.5,25.463,-54.394,5.0,-32.94373,-60.63375,31.1,0.0,-0.551,16.95797
571,1633986453.0,-0.447,-0.664,9.755,0.001,0.0,-0.0,457.3,-25.388,26.719,-54.094,5.0,-32.94373,-60.63375,31.1,0.0,-0.664,17.222256
572,1633986454.0,-0.423,-0.614,9.679,-0.001,0.002,0.002,457.3,-26.1,26.419,-54.544,5.0,-32.94373,-60.63375,31.1,0.0,-0.614,18.552269
573,1633986455.0,-0.454,-0.602,9.659,0.0,-0.003,0.0,457.3,-27.338,25.013,-54.656,5.0,-32.94374,-60.63375,32.9,0.0,-0.602,14.943997
574,1633986456.0,-0.425,-0.642,9.832,0.0,-0.002,-0.002,457.3,-26.794,25.631,-53.756,5.0,-32.94374,-60.63375,33.1,0.0,-0.642,15.065887
575,1633986457.0,-0.439,-0.582,9.707,0.002,-0.001,0.001,457.3,-26.1,26.419,-55.313,5.0,-32.94374,-60.63375,33.1,0.0,-0.582,14.508464
576,1633986458.0,-0.485,-0.652,9.858,0.0,-0.001,0.0,457.3,-25.181,24.656,-55.5,5.0,-32.94374,-60.63375,33.1,0.0,-0.652,14.630966
577,1633986459.0,-0.435,-0.63,9.774,-0.001,-0.002,0.0,457.3,-25.894,24.206,-54.694,5.0,-32.94374,-60.63375,33.1,0.0,-0.63,17.713428
578,1633986460.0,-0.43,-0.57,9.592,0.0,0.003,0.002,457.3,-25.613,24.506,-54.544,5.0,-32.94374,-60.63375,34.3,0.19444444444444442,-0.57,16.31584
579,1633986461.0,-0.497,-0.683,9.851,0.0,0.0,0.001,457.3,-26.081,26.1,-54.844,5.0,-32.94374,-60.63375,35.0,0.22222222222222224,-0.683,15.457352
580,1633986462.0,-0.423,-0.657,9.765,0.001,-0.001,-0.001,457.3,-25.913,24.994,-53.925,5.0,-32.94374,-60.63375,35.3,0.16666666666666666,-0.657,18.600208
581,1633986463.0,-0.468,-0.59,9.659,0.0,0.007,0.003,457.3,-25.613,24.506,-54.863,5.0,-32.94374,-60.63375,35.7,0.16666666666666666,-0.59,18.680143
582,1633986464.0,-0.406,-0.582,9.635,0.001,-0.001,0.001,457.3,-25.35,25.294,-54.563,5.0,-32.94374,-60.63375,36.0,0.0,-0.582,17.900064
583,1633986465.0,-0.499,-0.592,9.772,0.0,-0.003,-0.004,415.6,-25.669,26.719,-53.006,5.0,-32.94374,-60.63375,36.0,0.0,-0.592,18.688898
584,1633986466.0,-0.461,-0.683,9.813,0.0,0.004,0.002,462.8,-25.369,26.081,-53.775,5.0,-32.94374,-60.63374,36.3,0.0,-0.683,17.902689
585,1633986467.0,-0.444,-0.59,9.671,0.0,0.0,-0.0,462.8,-26.1,26.419,-55.313,5.0,-32.94373,-60.63374,36.7,0.0,-0.59,17.848349
586,1633986468.0,-0.432,-0.695,9.815,-0.001,0.001,-0.0,462.8,-24.769,25.444,-53.944,5.0,-32.94373,-60.63373,36.8,0.0,-0.695,14.426993
587,1633986469.0,-0.418,-0.599,9.657,0.0,0.005,0.003,462.8,-24.825,27.338,-53.175,5.0,-32.94373,-60.63373,36.8,0.0,-0.599,15.68114
588,1633986470.0,-0.444,-0.63,9.767,0.0,-0.002,-0.0,462.8,-26.213,25.781,-54.694,5.0,-32.94373,-60.63373,36.8,0.16666666666666666,-0.63,16.222162
589,1633986471.0,-0.449,-0.59,9.645,-0.001,-0.0,0.0,420.0,-25.631,25.613,-53.775,5.0,-32.94373,-60.63373,36.8,0.0,-0.59,14.596619
590,1633986472.0,-0.423,-0.642,9.791,0.0,-0.003,-0.001,420.0,-24.638,25.594,-54.581,5.0,-32.94373,-60.63373,36.8,0.0,-0.642,13.718076
591,1633986473.0,-0.418,-0.566,9.887,0.002,-0.001,0.0,420.0,-24.75,24.656,-53.944,5.0,-32.94373,-60.63373,38.2,0.0,-0.566,10.062504
592,1633986474.0,-0.399,0.615,9.738,0.002,-0.004,0.003,469.0,-25.463,24.675,-53.156,5.0,-32.94372,-60.63373,38.2,0.41666666666666663,0.615,-15.159028
593,1633986475.0,-0.569,2.819,9.64,0.028,-0.033,0.02,469.0,-29.738,29.625,-40.95,5.0,-32.94371,-60.63374,38.0,1.6388888888888888,2.819,-18.237835
594,1633986476.0,-0.451,0.728,10.203,0.006,0.012,0.012,341.8,-24.563,37.763,-55.369,5.0,-32.94369,-60.63375,38.2,3.2777777777777777,0.728,-18.15971
595,1633986477.0,0.38,-0.551,9.801,0.01,-0.01,-0.055,271.4,-24.225,35.7,-57.244,5.0,-32.94365,-60.63377,38.2,4.833333333333333,-0.551,-31.431433
596,1633986478.0,0.004,0.283,9.667,0.003,-0.017,-0.056,302.4,-24.45,33.806,-58.013,5.0,-32.94361,-60.6338,38.6,5.111111111111111,0.283,-23.550129
597,1633986479.0,-0.121,0.524,9.535,-0.039,0.055,0.001,376.3,-27.056,34.181,-57.638,5.0,-32.94357,-60.63382,39.3,5.916666666666667,0.524,-23.098024
598,1633986480.0,0.689,0.383,6.981,0.04,0.03,-0.001,476.9,-28.669,35.625,-58.069,5.0,-32.94352,-60.63383,40.3,6.416666666666667,0.383,-21.358229
599,1633986481.0,-0.394,-0.307,9.659,-0.012,0.005,0.002,476.9,-27.881,33.244,-57.3,5.0,-32.94347,-60.63386,40.0,6.75,-0.307,-19.780077
600,1633986482.0,-0.688,0.702,11.562,0.02,0.093,0.014,476.9,-27.506,34.969,-57.638,5.0,-32.9434,-60.63388,42.0,7.5,0.702,-20.824389
601,1633986483.0,-1.163,-0.24,8.153,0.023,-0.093,-0.007,476.9,-27.675,35.606,-57.788,5.0,-32.94332,-60.6339,40.7,8.555555555555555,-0.24,-19.22218
602,1633986484.0,-0.866,-0.525,9.346,0.011,0.035,0.027,476.9,-28.369,35.306,-56.981,5.0,-32.94324,-60.63393,40.9,8.61111111111111,-0.525,-18.3768
603,1633986485.0,-2.768,-0.805,10.362,-0.068,0.071,0.044,535.7,-29.663,35.006,-56.813,5.0,-32.94316,-60.63396,38.3,8.88888888888889,-0.805,-17.655455
604,1633986486.0,-0.334,-0.216,10.795,0.002,-0.044,0.004,597.9,-29.775,34.069,-56.963,5.0,-32.94316,-60.63396,38.3,8.88888888888889,-0.216,-19.800322
605,1633986487.0,0.138,-1.641,10.098,-0.033,0.017,-0.001,597.9,-27.113,36.225,-57.169,5.0,-32.94309,-60.63399,35.4,9.0,-1.641,-17.57778
606,1633986488.0,0.6,-0.211,10.412,0.083,0.08,0.024,597.9,-27.788,34.669,-57.15,5.0,-32.943,-60.63402,38.2,9.416666666666666,-0.211,-16.860857
607,1633986489.0,-1.697,0.266,10.848,0.15,-0.006,-0.033,490.8,-25.931,35.419,-57.206,5.0,-32.94292,-60.63406,37.6,9.777777777777779,0.266,-17.547503
608,1633986490.0,-0.9,-0.259,11.149,-0.012,-0.025,0.009,446.0,-23.606,43.275,-59.756,5.0,-32.94284,-60.63408,38.3,10.13888888888889,-0.259,-17.275278
609,1633986491.0,0.116,0.144,9.681,-0.028,0.024,-0.016,446.0,-19.069,31.819,-51.15,5.0,-32.94276,-60.6341,39.5,10.527777777777777,0.144,-21.910109
610,1633986492.0,-0.08,-0.422,10.115,-0.02,0.026,0.017,446.0,-21.544,37.875,-52.5,5.0,-32.94266,-60.63414,39.9,11.194444444444443,-0.422,-20.044537
611,1633986493.0,-0.004,-0.649,10.115,0.004,0.033,0.021,403.7,-22.463,29.681,-58.988,5.0,-32.94256,-60.63418,39.8,11.972222222222223,-0.649,-18.917778
612,1633986494.0,0.13,-0.74,9.894,0.0,-0.042,-0.002,403.7,-24.938,30.825,-55.819,5.0,-32.94246,-60.63422,39.7,11.888888888888888,-0.74,-20.062159
613,1633986495.0,-0.061,-0.625,9.736,0.025,-0.044,-0.016,403.7,-29.531,31.519,-51.675,5.0,-32.94236,-60.63427,38.7,12.222222222222221,-0.625,-20.407175
614,1633986496.0,1.242,-0.937,9.015,-0.088,-0.023,0.002,360.4,-21.469,43.238,-66.488,5.0,-32.94224,-60.63432,38.4,12.38888888888889,-0.937,-21.566412
615,1633986497.0,-0.442,-0.934,10.606,0.069,0.007,0.029,289.2,-19.35,31.05,-58.594,5.0,-32.94213,-60.63436,39.2,12.5,-0.934,-22.21548
616,1633986498.0,-0.964,-0.839,9.765,-0.012,0.026,0.002,261.4,-23.663,31.894,-51.038,5.0,-32.94202,-60.63441,38.6,12.805555555555555,-0.839,-25.588585
617,1633986499.0,0.226,-1.032,10.083,-0.01,-0.007,-0.001,261.4,-25.8,30.675,-59.531,5.0,-32.94191,-60.63447,38.2,13.11111111111111,-1.032,-25.334648
618,1633986500.0,-0.028,-1.272,10.929,0.019,0.006,-0.014,261.4,-29.7,27.581,-51.356,5.0,-32.94181,-60.63451,38.5,12.75,-1.272,-37.70978
619,1633986501.0,-0.986,-1.433,9.513,0.074,0.017,-0.008,296.1,-31.219,49.238,-51.206,5.0,-32.94169,-60.63456,38.6,12.833333333333334,-1.433,-22.834936
620,1633986502.0,0.914,-1.548,8.143,0.002,-0.11,-0.043,259.0,-23.794,35.381,-60.825,5.0,-32.94157,-60.6346,39.2,12.86111111111111,-1.548,-22.80657
621,1633986503.0,-0.614,-0.743,9.801,0.05,-0.081,-0.004,261.9,-32.569,37.106,-50.531,5.0,-32.94146,-60.63465,38.9,12.61111111111111,-0.743,-27.412945
622,1633986504.0,-0.758,-1.241,10.479,-0.015,-0.039,0.016,386.5,-26.381,35.738,-60.769,5.0,-32.94135,-60.6347,35.8,12.444444444444443,-1.241,-22.892069
623,1633986505.0,-1.249,-0.774,9.7,0.039,0.06,0.064,432.6,-27.188,33.713,-59.663,5.0,-32.94124,-60.63475,35.2,12.277777777777779,-0.774,-27.898619
624,1633986506.0,-1.534,-1.128,9.334,-0.054,-0.005,0.102,549.6,-22.538,32.044,-57.431,5.0,-32.94114,-60.6348,35.4,12.083333333333332,-1.128,-30.570055
625,1633986507.0,-2.023,-0.982,9.19,-0.035,0.005,0.121,618.7,-23.438,33.319,-58.5,5.0,-32.94104,-60.63486,35.8,11.972222222222223,-0.982,-31.97376
626,1633986508.0,-1.958,-0.192,9.841,0.019,0.079,0.143,618.7,-23.419,32.531,-57.263,5.0,-32.94095,-60.63493,35.1,11.638888888888888,-0.192,-38.305725
627,1633986509.0,-2.962,0.613,9.961,-0.089,-0.095,0.045,687.8,-20.531,31.856,-58.875,5.0,-32.94086,-60.63501,35.9,11.583333333333334,0.613,-40.274586
628,1633986510.0,-1.256,0.103,9.363,-0.013,-0.053,0.046,687.8,-18.394,32.438,-58.613,5.0,-32.94079,-60.6351,36.5,12.11111111111111,0.103,-44.951004
629,1633986511.0,0.517,0.259,9.528,-0.017,0.022,0.029,687.8,-17.588,29.438,-58.931,5.0,-32.94072,-60.63519,34.0,12.583333333333332,0.259,-49.46075
630,1633986512.0,0.696,-0.523,11.118,0.026,-0.01,-0.017,687.8,-18.975,27.881,-58.913,5.0,-32.94065,-60.6353,31.5,13.25,-0.523,-50.765415
631,1633986513.0,0.754,-0.022,10.144,0.007,0.085,0.016,764.7,-19.463,29.625,-58.744,5.0,-32.94057,-60.63542,31.5,13.972222222222221,-0.022,-54.549152
632,1633986514.0,0.921,-0.599,9.724,0.006,0.021,-0.021,764.7,-18.675,32.456,-60.938,5.0,-32.94049,-60.63554,32.7,14.694444444444443,-0.599,-48.507496
633,1633986515.0,0.72,-1.354,8.62,-0.013,0.011,-0.038,764.7,-18.619,30.244,-58.913,5.0,-32.9404,-60.63566,33.0,15.222222222222221,-1.354,-47.600506
634,1633986516.0,0.209,-0.934,9.741,0.036,0.055,-0.015,694.1,-19.5,31.519,-57.975,5.0,-32.94031,-60.63579,33.6,15.13888888888889,-0.934,-45.36559
635,1633986517.0,1.307,-1.293,9.233,-0.013,0.032,-0.066,776.4,-20.644,31.219,-58.256,5.0,-32.94021,-60.63592,33.1,15.13888888888889,-1.293,-46.548782
636,1633986518.0,0.584,-1.066,10.323,-0.005,0.098,-0.039,776.4,-20.831,32.494,-59.344,5.0,-32.94012,-60.63605,31.6,14.916666666666668,-1.066,-42.81465
637,1633986519.0,1.347,-2.106,12.695,0.0,0.047,0.001,698.1,-22.069,30.769,-58.988,5.0,-32.94003,-60.63616,31.4,14.527777777777777,-2.106,-35.69226
638,1633986520.0,-0.842,-1.303,10.996,0.072,0.011,0.011,627.6,-21.244,31.856,-58.088,5.0,-32.93994,-60.63626,31.6,14.0,-1.303,-40.617863
639,1633986521.0,1.532,-0.501,10.594,-0.047,-0.026,-0.017,627.6,-21.806,31.556,-56.363,5.0,-32.93984,-60.63636,31.9,13.527777777777779,-0.501,-42.55268
640,1633986522.0,-0.042,-0.702,12.544,0.128,-0.025,-0.028,430.9,-21.356,31.238,-57.15,5.0,-32.93975,-60.63646,31.3,13.277777777777777,-0.702,-43.140438
641,1633986523.0,0.281,-0.618,10.35,-0.049,0.023,0.016,234.2,-23.981,32.063,-58.95,5.0,-32.93966,-60.63655,32.0,13.416666666666666,-0.618,-40.03661
642,1633986524.0,-0.396,-0.35,11.006,-0.006,-0.009,-0.005,121.7,-22.256,32.194,-58.519,5.0,-32.93956,-60.63664,32.7,13.61111111111111,-0.35,-44.64349
643,1633986525.0,0.483,-0.716,9.808,0.055,0.038,0.008,60.5,-21.375,31.556,-59.006,5.0,-32.93946,-60.63674,32.9,13.944444444444445,-0.716,-41.778667
644,1633986526.0,-0.461,-0.247,8.318,0.013,-0.063,-0.022,37.5,-21.956,31.875,-56.513,5.0,-32.93937,-60.63684,33.1,14.194444444444445,-0.247,-44.774044
645,1633986527.0,-0.037,-1.26,10.998,-0.09,-0.015,-0.003,24.0,-22.613,34.406,-58.988,5.0,-32.93927,-60.63694,33.4,14.305555555555555,-1.26,-46.639973
646,1633986528.0,-0.798,-0.784,8.936,0.037,-0.054,0.027,29.1,-22.294,33.3,-58.519,5.0,-32.93908,-60.63713,34.0,13.61111111111111,-0.784,-45.60433
647,1633986529.0,-0.47,-1.32,8.435,0.004,-0.061,0.009,25.0,-20.494,30.581,-58.875,5.0,-32.93899,-60.63722,34.4,13.11111111111111,-1.32,-47.32299
648,1633986530.0,-0.664,-1.061,10.256,0.032,-0.004,0.045,25.2,-20.1,32.156,-57.806,5.0,-32.9389,-60.63731,34.7,12.444444444444443,-1.061,-44.824852
649,1633986531.0,-0.284,-1.193,9.207,-0.011,-0.052,0.004,24.4,-21.075,31.238,-59.475,5.0,-32.93882,-60.6374,34.9,11.833333333333334,-1.193,-44.346394
650,1633986532.0,-0.432,-0.891,10.675,0.006,-0.024,0.028,36.1,-23.213,30.788,-58.65,5.0,-32.93874,-60.6375,35.0,11.416666666666666,-0.891,-46.94967
651,1633986533.0,0.253,-0.946,11.166,0.013,0.024,0.054,29.3,-19.313,29.456,-59.363,5.0,-32.93867,-60.63759,35.2,11.083333333333332,-0.946,-52.134754
652,1633986534.0,-0.164,-0.98,9.396,-0.018,-0.001,0.028,26.6,-18.581,28.969,-60.15,5.0,-32.93861,-60.63769,35.4,10.777777777777777,-0.98,-51.10561
653,1633986535.0,0.109,-0.831,10.436,0.029,0.005,0.033,25.2,-17.606,30.225,-58.631,5.0,-32.93854,-60.63778,35.5,10.555555555555555,-0.831,-54.385094
654,1633986536.0,0.231,-0.906,9.568,-0.043,0.017,0.03,29.3,-16.894,30.206,-60.506,5.0,-32.93849,-60.63787,35.7,10.25,-0.906,-50.644558
655,1633986537.0,0.25,-1.08,10.323,-0.023,0.032,0.007,33.6,-16.894,30.525,-59.738,5.0,-32.93844,-60.63796,35.9,9.88888888888889,-1.08,-45.410404
656,1633986538.0,-0.461,-0.946,10.237,-0.066,0.029,-0.004,20.6,-19.031,29.775,-58.913,5.0,-32.93844,-60.63796,35.9,9.88888888888889,-0.946,-54.19704
657,1633986539.0,0.028,-0.896,9.595,-0.006,0.012,0.014,25.8,-19.725,28.988,-58.575,5.0,-32.93839,-60.63804,36.1,9.472222222222223,-0.896,-49.994305
658,1633986540.0,0.411,-0.999,10.905,0.023,0.009,0.009,30.8,-18.769,30.394,-58.763,5.0,-32.93834,-60.63812,36.4,9.11111111111111,-0.999,-53.561543
659,1633986541.0,-0.396,-0.367,10.028,-0.033,0.04,0.002,39.1,-18.788,31.181,-58.294,5.0,-32.93829,-60.63821,36.6,8.833333333333334,-0.367,-52.98035
660,1633986542.0,0.116,-0.417,9.817,-0.026,-0.033,-0.011,42.9,-19.425,28.838,-58.275,5.0,-32.93824,-60.63829,36.8,9.11111111111111,-0.417,-52.998707
661,1633986543.0,-0.751,-0.266,9.801,0.002,0.015,0.016,47.7,-17.006,29.588,-57.244,5.0,-32.93819,-60.63838,37.1,9.472222222222223,-0.266,-56.68614
662,1633986544.0,-0.533,-0.345,10.16,0.006,0.019,0.016,58.2,-22.5,30.788,-57.9,5.0,-32.93813,-60.63847,37.3,9.777777777777779,-0.345,-58.504833
663,1633986545.0,0.032,-1.021,9.576,0.019,0.013,0.024,46.1,-22.913,29.831,-58.031,5.0,-32.93808,-60.63856,37.5,9.944444444444443,-1.021,-56.96232
664,1633986546.0,0.421,-0.92,8.737,-0.022,0.001,-0.004,33.3,-24.638,29.719,-60.488,5.0,-32.93803,-60.63865,37.7,9.777777777777779,-0.92,-55.391857
665,1633986547.0,-0.305,-0.76,9.822,-0.004,-0.024,-0.02,39.2,-23.475,29.381,-59.738,5.0,-32.93799,-60.63873,38.0,9.388888888888888,-0.76,-56.402462
666,1633986548.0,-0.267,-0.8,9.353,-0.034,0.021,-0.0,60.9,-24.056,29.55,-60.038,5.0,-32.93794,-60.63882,38.2,8.972222222222221,-0.8,-56.732834
667,1633986549.0,0.363,-1.071,9.542,-0.012,0.012,-0.0,57.4,-23.344,29.85,-58.031,5.0,-32.93789,-60.6389,38.5,8.61111111111111,-1.071,-55.50333
668,1633986550.0,0.962,-0.252,9.896,0.03,0.037,0.005,43.0,-22.519,31.575,-58.669,5.0,-32.93784,-60.63898,38.8,8.333333333333334,-0.252,-48.38817
669,1633986551.0,0.356,-0.226,9.556,-0.021,-0.016,-0.004,42.9,-24.094,31.125,-57.244,5.0,-32.9378,-60.63905,39.2,8.416666666666666,-0.226,-47.70981
670,1633986552.0,0.763,-0.625,9.904,-0.015,0.028,0.002,30.1,-23.4,31.894,-59.588,5.0,-32.93775,-60.63914,39.4,8.777777777777779,-0.625,-34.27322
671,1633986553.0,0.123,-0.81,9.413,-0.019,-0.024,0.011,22.9,-23.663,31.425,-57.244,5.0,-32.9377,-60.63922,39.7,9.11111111111111,-0.81,-31.98718
672,1633986554.0,-0.533,-0.441,10.108,0.023,-0.01,0.002,16.3,-23.325,29.531,-58.031,5.0,-32.93765,-60.6393,40.0,8.972222222222221,-0.441,-28.858118
673,1633986555.0,0.497,-0.408,9.703,-0.01,-0.003,0.001,12.7,-23.213,30.469,-58.181,5.0,-32.93765,-60.6393,40.0,8.972222222222221,-0.408,-26.569904
674,1633986556.0,0.083,-0.204,8.567,-0.019,0.009,0.005,18.3,-23.625,30.319,-56.944,5.0,-32.93765,-60.6393,40.0,8.972222222222221,-0.204,-20.17105
675,1633986557.0,0.231,-0.367,10.378,0.017,-0.01,0.004,28.0,-23.213,30.788,-56.644,5.0,-32.93765,-60.6393,40.0,8.972222222222221,-0.367,-38.59124
676,1633986558.0,0.548,-2.829,10.426,0.05,0.0,-0.008,345.6,-19.313,29.775,-58.594,5.0,-32.93765,-60.6393,40.0,8.972222222222221,-2.829,-23.572882
677,1633986559.0,0.269,-1.359,9.236,-0.025,-0.028,-0.006,516.9,-18.075,31.5,-58.313,5.0,-32.93765,-60.6393,40.0,8.972222222222221,-1.359,-18.360468
678,1633986560.0,0.063,-0.903,9.746,0.0,0.017,0.014,399.8,-21.994,28.088,-59.756,5.0,-32.93765,-60.6393,40.0,8.972222222222221,-0.903,-25.561735
679,1633986561.0,-0.174,-1.016,9.521,0.008,-0.023,0.007,506.0,-18.3,29.438,-58.931,5.0,-32.93765,-60.6393,40.0,8.972222222222221,-1.016,-53.508816
680,1633986562.0,0.044,-0.096,9.331,0.042,0.006,-0.003,569.3,-18.394,27.713,-58.763,5.0,-32.93701,-60.64043,30.4,11.555555555555555,-0.096,-44.32896
681,1633986563.0,-0.458,0.057,9.523,-0.018,0.037,0.009,638.3,-18.638,31.031,-57.825,5.0,-32.93697,-60.6405,30.0,9.5,0.057,-34.56661
682,1633986564.0,0.037,-0.307,9.494,0.025,0.03,0.011,709.9,-16.219,26.888,-57.563,5.0,-32.93689,-60.64055,29.7,9.722222222222221,-0.307,-43.207798
683,1633986565.0,0.219,-0.47,9.616,-0.005,0.056,0.006,709.9,-17.269,28.481,-58.331,5.0,-32.93685,-60.64064,29.7,9.833333333333332,-0.47,-55.25063
684,1633986566.0,0.641,-0.247,8.694,0.013,-0.014,-0.013,709.9,-18.769,30.394,-58.763,5.0,-32.9368,-60.64071,29.7,9.666666666666666,-0.247,-51.447044
685,1633986567.0,-0.09,-1.32,10.527,-0.004,0.0,0.009,709.9,-18.319,29.756,-59.7,5.0,-32.93676,-60.64079,29.7,9.388888888888888,-1.32,-49.48148
686,1633986568.0,-0.351,-1.809,11.329,0.04,0.001,0.008,709.9,-18.338,30.544,-58.931,5.0,-32.93667,-60.64092,42.5,11.472222222222221,-1.809,-49.37884
687,1633986569.0,0.277,-1.167,10.083,0.011,0.025,0.002,709.9,-19.05,30.244,-58.913,5.0,-32.93661,-60.64102,42.7,11.055555555555555,-1.167,-47.77206
688,1633986570.0,0.011,-0.791,8.766,-0.02,0.011,-0.001,709.9,-17.588,29.438,-60.488,5.0,-32.93652,-60.64116,42.9,10.11111111111111,-0.791,-47.444515
689,1633986571.0,-0.183,-0.494,10.323,-0.037,-0.004,0.004,627.9,-17.325,30.375,-58.331,5.0,-32.93648,-60.6412,43.3,9.416666666666666,-0.494,-46.858852
690,1633986572.0,-0.035,-0.52,9.856,-0.019,0.028,-0.005,704.4,-18.6,29.756,-57.825,5.0,-32.93641,-60.64129,39.7,9.777777777777779,-0.52,-46.538105
691,1633986573.0,-0.121,-0.628,9.765,-0.023,-0.015,0.005,788.2,-17.888,29.756,-61.256,5.0,-32.93637,-60.64136,40.3,9.583333333333334,-0.628,-47.477062
692,1633986574.0,0.15,-0.839,9.908,-0.062,-0.012,-0.007,788.2,-19.181,29.925,-58.275,5.0,-32.93637,-60.64136,40.3,9.583333333333334,-0.839,-41.84367
693,1633986575.0,-0.092,-0.295,9.372,-0.006,-0.004,-0.003,788.2,-17.7,28.481,-60.338,5.0,-32.93629,-60.64152,33.0,8.722222222222221,-0.295,-44.51685
694,1633986576.0,0.344,-0.805,8.361,-0.017,0.006,0.022,788.2,-19.744,29.794,-60.131,5.0,-32.93625,-60.64159,32.6,8.38888888888889,-0.805,-48.421886
695,1633986577.0,0.121,-2.307,9.427,-0.039,0.021,0.003,788.2,-19.744,29.475,-59.363,5.0,-32.93624,-60.64162,24.8,7.722222222222222,-2.307,-52.26817
696,1633986578.0,0.044,-3.39,9.351,0.003,-0.044,-0.012,788.2,-17.738,29.588,-61.106,5.0,-32.9362,-60.64169,24.0,6.0,-3.39,-52.26849
697,1633986579.0,0.26,-0.975,9.856,-0.001,-0.019,-0.001,716.1,-18.769,30.394,-59.85,5.0,-32.93618,-60.64174,25.4,4.166666666666667,-0.975,-53.222736
698,1633986580.0,0.224,-0.434,9.231,-0.006,-0.021,0.003,716.1,-19.05,30.244,-60.15,5.0,-32.93616,-60.64177,26.3,3.75,-0.434,-50.834423
699,1633986581.0,0.032,-0.228,9.822,0.017,0.024,0.018,716.1,-18.975,28.2,-58.125,5.0,-32.93614,-60.64181,27.1,3.9722222222222223,-0.228,-48.29943
700,1633986582.0,0.457,-0.134,9.98,-0.036,-0.062,-0.02,716.1,-17.55,28.163,-58.931,5.0,-32.93612,-60.64185,27.1,4.333333333333333,-0.134,-49.1928
701,1633986583.0,-0.004,-0.163,10.206,0.014,-0.005,-0.004,716.1,-15.844,29.25,-54.938,5.0,-32.9361,-60.64189,27.4,4.888888888888889,-0.163,-50.046947
702,1633986584.0,0.71,-0.055,9.707,-0.03,0.003,0.008,716.1,-17.738,29.906,-59.1,5.0,-32.9361,-60.64189,27.4,4.888888888888889,-0.055,-49.857365
703,1633986585.0,0.646,0.175,9.693,-0.03,-0.023,0.004,716.1,-16.894,30.206,-60.506,5.0,-32.93606,-60.64194,28.8,5.388888888888888,0.175,-53.30341
704,1633986586.0,0.744,-0.659,9.336,-0.012,-0.025,0.02,644.5,-17.738,29.588,-60.338,5.0,-32.93603,-60.64199,28.8,5.861111111111112,-0.659,-48.8457
705,1633986587.0,0.382,-1.08,9.865,0.026,0.016,0.023,523.2,-19.463,29.625,-58.744,5.0,-32.936,-60.64205,29.6,5.916666666666667,-1.08,-43.737347
706,1633986588.0,0.044,-0.345,9.568,0.028,0.001,0.047,388.6,-16.575,29.25,-59.119,5.0,-32.93597,-60.6421,29.8,5.611111111111111,-0.345,-51.02998
707,1633986589.0,-0.171,-0.002,10.366,-0.022,0.015,0.037,344.5,-15.113,28.444,-58.838,5.0,-32.93595,-60.64216,30.5,5.916666666666667,-0.002,-59.170246
708,1633986590.0,-0.332,-0.214,10.335,-0.046,0.011,0.032,595.1,-16.125,28.613,-59.438,5.0,-32.93591,-60.64222,31.0,6.499999999999999,-0.214,-62.30565
709,1633986591.0,0.128,-1.352,8.876,0.004,-0.018,-0.016,744.3,-16.969,27.994,-59.1,5.0,-32.93588,-60.64229,32.5,7.111111111111112,-1.352,-61.48561
710,1633986592.0,0.438,-2.142,9.372,-0.021,-0.024,-0.009,831.8,-16.988,28.8,-59.1,5.0,-32.93586,-60.64234,31.8,6.861111111111111,-2.142,-65.513306
711,1633986593.0,-0.085,-1.459,9.743,0.009,-0.016,0.002,831.8,-17.625,26.119,-59.869,5.0,-32.93585,-60.64242,29.8,6.361111111111111,-1.459,-71.779366
712,1633986594.0,-0.037,-1.09,9.432,-0.013,0.037,0.02,754.4,-16.95,27.206,-58.8,5.0,-32.93581,-60.64247,32.2,5.555555555555555,-1.09,-71.76049
713,1633986595.0,0.308,-0.745,9.329,0.01,0.006,-0.015,754.4,-16.275,28.781,-60.375,5.0,-32.9358,-60.64251,31.2,4.972222222222221,-0.745,-69.30418
714,1633986596.0,0.042,-1.258,9.985,0.041,-0.028,0.001,754.4,-16.556,28.463,-58.8,5.0,-32.93578,-60.64256,32.5,4.75,-1.258,-68.887726
715,1633986597.0,-0.344,-0.455,10.29,0.003,0.024,0.012,754.4,-16.2,26.4,-59.588,5.0,-32.93578,-60.64258,28.5,4.472222222222222,-0.455,-72.16857
716,1633986598.0,0.708,0.18,9.391,0.005,-0.033,0.001,681.0,-17.231,27.206,-59.1,5.0,-32.93581,-60.64266,16.6,4.638888888888888,0.18,-59.35826
717,1633986599.0,-0.727,0.821,9.614,-0.004,0.005,0.019,681.0,-16.913,26.419,-59.569,5.0,-32.9358,-60.64273,15.2,5.194444444444444,0.821,-70.997795
718,1633986600.0,-0.095,0.515,9.803,0.014,-0.002,-0.03,681.0,-17.606,25.65,-59.081,5.0,-32.93578,-60.64277,18.1,6.388888888888888,0.515,-71.17338
719,1633986601.0,-0.188,0.474,10.51,-0.039,0.022,-0.037,681.0,-17.1,27.844,-57.863,5.0,-32.93574,-60.64283,21.7,7.694444444444444,0.474,-71.724
720,1633986602.0,0.133,-0.953,9.499,-0.035,0.017,-0.015,681.0,-17.681,27.694,-58.781,5.0,-32.93571,-60.64292,22.1,9.083333333333334,-0.953,-63.22607
721,1633986603.0,0.313,0.117,9.212,-0.002,-0.027,-0.082,681.0,-17.738,29.588,-58.781,5.0,-32.93567,-60.64299,22.0,9.277777777777777,0.117,-59.193363
722,1633986604.0,0.624,-0.35,9.966,0.031,-0.005,-0.079,681.0,-21.45,29.025,-58.856,5.0,-32.93565,-60.64308,20.5,9.666666666666666,-0.35,-53.184517
723,1633986605.0,0.121,-0.973,9.681,-0.004,0.009,-0.075,681.0,-20.794,31.388,-57.788,5.0,-32.9356,-60.64318,20.2,10.277777777777777,-0.973,-51.824955
724,1633986606.0,0.524,-1.821,9.183,-0.021,0.02,-0.027,681.0,-21.806,31.556,-57.919,5.0,-32.93555,-60.64327,20.0,10.583333333333334,-1.821,-51.790432
725,1633986607.0,-0.317,-0.836,8.639,0.013,0.042,0.001,681.0,-20.756,30.281,-58.088,5.0,-32.93548,-60.64335,19.7,10.0,-0.836,-49.245743
726,1633986608.0,-0.439,-0.781,8.964,-0.017,0.012,-0.007,758.3,-20.494,31.069,-56.231,5.0,-32.93541,-60.64342,19.4,9.416666666666666,-0.781,-49.6893
727,1633986609.0,-0.736,-1.126,9.928,-0.021,0.052,0.019,758.3,-20.006,33.581,-57.956,5.0,-32.93534,-60.64348,21.2,9.055555555555555,-1.126,-48.027817
728,1633986610.0,-0.348,-0.946,9.851,0.039,-0.017,0.039,758.3,-17.925,31.013,-59.719,5.0,-32.93527,-60.64354,22.1,8.86111111111111,-0.946,-46.57799
729,1633986611.0,0.107,-0.834,9.664,0.023,0.02,0.003,758.3,-21.469,29.813,-57.3,5.0,-32.9352,-60.64362,20.6,8.666666666666666,-0.834,-44.55036
730,1633986612.0,0.277,0.359,9.784,-0.036,-0.042,-0.006,758.3,-19.05,30.563,-57.038,5.0,-32.93515,-60.64367,21.8,8.555555555555555,0.359,-46.40089
731,1633986613.0,-0.042,-0.47,10.254,0.028,0.002,0.03,758.3,-19.894,29.944,-57.956,5.0,-32.93509,-60.64374,21.4,9.138888888888888,-0.47,-46.430153
732,1633986614.0,0.128,-0.774,9.767,-0.001,0.041,0.045,758.3,-19.35,31.35,-56.569,5.0,-32.93503,-60.64382,21.1,10.027777777777779,-0.774,-50.34316
733,1633986615.0,-0.679,-0.946,10.316,0.046,-0.018,0.057,758.3,-19.388,31.838,-59.681,5.0,-32.93498,-60.64389,21.1,10.277777777777777,-0.946,-51.264477
734,1633986616.0,-0.739,-1.545,10.994,0.032,0.005,0.09,758.3,-19.463,29.944,-59.044,5.0,-32.93491,-60.64398,21.7,10.36111111111111,-1.545,-56.48052
735,1633986617.0,-0.238,-1.097,9.506,-0.032,-0.017,0.054,758.3,-16.838,28.631,-59.738,5.0,-32.93485,-60.64407,21.5,10.333333333333334,-1.097,-53.08122
736,1633986618.0,-0.763,-0.81,10.4,-0.025,-0.008,0.065,758.3,-17.156,29.419,-58.631,5.0,-32.93479,-60.64415,22.4,10.11111111111111,-0.81,-56.47339
737,1633986619.0,-0.277,-0.863,10.011,0.02,0.029,0.058,843.3,-16.538,27.994,-58.8,5.0,-32.93475,-60.64424,23.8,9.944444444444443,-0.863,-59.572643
738,1633986620.0,0.349,-0.278,10.139,0.045,-0.032,0.014,843.3,-17.663,26.906,-61.106,5.0,-32.9347,-60.64433,24.0,9.86111111111111,-0.278,-60.621204
739,1633986621.0,0.188,-1.021,10.366,0.023,0.011,-0.015,843.3,-16.913,26.1,-59.888,5.0,-32.93466,-60.64444,25.6,10.11111111111111,-1.021,-59.911625
740,1633986622.0,0.382,-0.221,8.507,-0.001,0.013,-0.022,843.3,-16.95,27.206,-59.888,5.0,-32.93458,-60.64461,24.7,10.527777777777777,-0.221,-58.346363
741,1633986623.0,-0.248,-1.474,9.413,-0.097,0.005,-0.024,843.3,-15.844,28.463,-60.375,5.0,-32.93454,-60.64469,24.8,10.333333333333334,-1.474,-58.883327
742,1633986624.0,-1.127,-1.03,9.647,0.014,0.079,0.008,762.6,-17.306,29.588,-58.331,5.0,-32.9345,-60.64478,25.6,9.944444444444443,-1.03,-60.83078
743,1633986625.0,0.212,-0.381,9.061,0.04,-0.023,-0.023,762.6,-18.675,27.244,-58.763,5.0,-32.93444,-60.64487,25.2,9.972222222222221,-0.381,-55.723713
744,1633986626.0,0.799,-0.578,10.17,0.023,-0.005,-0.025,762.6,-19.388,27.263,-61.069,5.0,-32.9344,-60.64498,25.3,10.472222222222223,-0.578,-57.286266
745,1633986627.0,0.734,-0.25,9.348,-0.006,0.009,-0.047,762.6,-17.006,29.269,-58.013,5.0,-32.93435,-60.64509,25.1,11.055555555555555,-0.25,-53.50355
746,1633986628.0,0.32,0.529,9.7,-0.034,0.021,-0.012,762.6,-18.75,30.394,-57.975,5.0,-32.93429,-60.64519,24.9,11.638888888888888,0.529,-52.55393
747,1633986629.0,-0.207,-1.205,10.047,-0.033,0.001,-0.012,762.6,-17.606,30.544,-57.863,5.0,-32.93422,-60.6453,25.2,12.527777777777779,-1.205,-52.877644
748,1633986630.0,0.114,-1.049,10.175,0.001,0.029,0.012,762.6,-17.138,28.95,-59.419,5.0,-32.93415,-60.64541,25.3,12.75,-1.049,-55.883533
749,1633986631.0,0.742,-1.665,10.943,0.016,0.038,0.002,684.7,-17.569,28.969,-60.188,5.0,-32.93409,-60.64552,26.0,12.277777777777779,-1.665,-47.32873
750,1633986632.0,0.121,-1.38,8.203,0.022,-0.027,0.013,684.7,-18.319,29.756,-58.613,5.0,-32.93409,-60.64552,26.0,12.277777777777779,-1.38,-47.571224
751,1633986633.0,-0.128,-2.616,9.585,-0.004,0.026,-0.012,621.7,-17.119,28.163,-57.394,5.0,-32.93403,-60.64563,26.7,11.694444444444445,-2.616,-50.672337
752,1633986634.0,0.617,-3.363,9.125,-0.08,0.022,-0.006,621.7,-17.063,31.481,-58.031,5.0,-32.93399,-60.64572,26.6,9.916666666666668,-3.363,-48.84849
753,1633986635.0,0.555,-1.55,9.269,0.001,0.021,0.007,621.7,-18.094,32.288,-58.313,5.0,-32.93393,-60.64579,25.3,7.861111111111111,-1.55,-48.604084
754,1633986636.0,-0.413,-1.919,9.482,-0.027,-0.03,-0.013,557.4,-18.3,29.438,-59.381,5.0,-32.93388,-60.64582,26.9,6.25,-1.919,-50.998386
755,1633986637.0,0.04,-1.34,10.134,-0.01,-0.01,-0.004,443.7,-16.556,28.463,-58.031,5.0,-32.93387,-60.64586,28.6,5.138888888888888,-1.34,-53.660442
756,1633986638.0,0.2,0.184,9.872,0.027,0.02,0.04,443.7,-16.125,28.613,-59.438,5.0,-32.93383,-60.64591,30.2,4.638888888888888,0.184,-55.286476
757,1633986639.0,0.766,-1.1,9.046,0.003,-0.02,-0.047,443.7,-18.45,29.606,-59.85,5.0,-32.93379,-60.64597,30.8,4.833333333333333,-1.1,-51.33332
758,1633986640.0,0.066,-0.602,9.272,-0.043,-0.046,-0.023,493.4,-19.013,29.456,-58.913,5.0,-32.93379,-60.64598,29.7,4.694444444444444,-0.602,-55.63765
759,1633986641.0,0.457,-0.46,8.66,-0.006,0.017,-0.011,548.3,-17.625,31.013,-58.95,5.0,-32.93376,-60.64603,27.6,4.861111111111111,-0.46,-57.81724
760,1633986642.0,0.38,-1.08,9.698,0.002,0.026,0.008,548.3,-17.963,32.438,-59.719,5.0,-32.93372,-60.6461,29.8,5.0,-1.08,-47.589874
761,1633986643.0,0.488,-1.423,10.342,-0.043,-0.003,-0.005,548.3,-22.594,29.044,-55.406,5.0,-32.93369,-60.64613,33.6,4.611111111111112,-1.423,-36.01137
762,1633986644.0,0.011,-1.627,9.669,-0.004,-0.007,-0.015,548.3,-17.306,29.906,-58.013,5.0,-32.93366,-60.64618,34.4,4.111111111111112,-1.627,-32.036427
763,1633986645.0,0.751,-2.405,9.839,0.001,0.004,0.002,548.3,-18.806,31.988,-58.294,5.0,-32.93363,-60.64622,37.1,3.4722222222222223,-2.405,-32.788467
764,1633986646.0,0.344,-2.554,9.537,0.01,-0.005,0.01,548.3,-18.094,31.969,-59.869,5.0,-32.93361,-60.64626,38.3,2.694444444444444,-2.554,-27.58914
765,1633986647.0,0.286,-1.471,9.834,0.002,0.002,0.001,613.5,-17.756,30.375,-59.1,5.0,-32.9336,-60.64626,41.5,1.1111111111111112,-1.471,-25.589462
766,1633986648.0,0.308,-0.757,9.523,-0.001,0.001,0.001,683.0,-16.463,30.525,-58.969,5.0,-32.9336,-60.64625,40.2,0.22222222222222224,-0.757,-42.08611
767,1633986649.0,0.284,-0.841,9.746,0.0,-0.001,-0.001,683.0,-18.619,30.244,-59.381,5.0,-32.93359,-60.64626,41.3,0.3055555555555556,-0.841,6.251788
768,1633986650.0,0.311,-0.815,9.667,0.001,-0.001,-0.001,683.0,-18.731,29.288,-57.975,5.0,-32.93358,-60.64627,41.0,0.25,-0.815,20.841446
769,1633986651.0,0.313,-0.764,9.621,0.0,-0.001,-0.0,683.0,-20.513,31.369,-58.875,5.0,-32.93358,-60.64627,43.2,0.25,-0.764,25.659136
770,1633986652.0,0.32,-0.762,9.6,-0.0,-0.002,-0.0,683.0,-19.219,31.519,-58.744,5.0,-32.93357,-60.64627,42.3,0.2777777777777778,-0.762,10.458068
771,1633986653.0,0.315,-0.764,9.638,-0.0,-0.0,-0.001,683.0,-17.156,29.419,-58.181,5.0,-32.93357,-60.64626,42.3,0.3055555555555556,-0.764,4.5817943
772,1633986654.0,0.32,-0.764,9.681,-0.001,-0.001,-0.001,683.0,-18.469,30.394,-60.319,5.0,-32.93357,-60.64626,42.5,0.3055555555555556,-0.764,10.823146
773,1633986655.0,0.303,-0.834,9.808,-0.0,-0.001,0.0,683.0,-18.656,31.819,-59.381,5.0,-32.93358,-60.64626,40.9,0.3333333333333333,-0.834,15.263731
774,1633986656.0,0.277,-0.882,9.805,0.001,-0.001,-0.0,683.0,-19.913,30.413,-61.369,5.0,-32.93358,-60.64626,40.0,0.16666666666666666,-0.882,14.305893
775,1633986657.0,0.318,-0.781,9.621,-0.001,0.002,0.001,683.0,-19.313,29.456,-58.894,5.0,-32.93357,-60.64626,40.7,0.0,-0.781,7.367984
776,1633986658.0,0.303,-0.836,9.724,-0.001,0.002,0.001,683.0,-18.356,31.35,-58.931,5.0,-32.93357,-60.64627,40.0,0.0,-0.836,7.3938265
777,1633986659.0,0.332,-0.793,9.707,-0.0,-0.003,-0.001,683.0,-18.338,30.544,-59.381,5.0,-32.93358,-60.64627,39.2,0.0,-0.793,8.288999
778,1633986660.0,0.308,-0.784,9.736,0.001,0.002,0.001,683.0,-18.731,29.606,-59.531,5.0,-32.93357,-60.64628,38.2,0.0,-0.784,5.102048
779,1633986661.0,0.291,-0.827,9.688,-0.0,0.0,0.0,683.0,-19.069,31.35,-58.594,5.0,-32.93357,-60.64629,38.3,0.22222222222222224,-0.827,7.8763423
780,1633986662.0,0.32,-0.795,9.772,0.001,-0.001,0.0,683.0,-18.544,27.863,-59.381,5.0,-32.93357,-60.64628,35.6,0.16666666666666666,-0.795,7.361406
781,1633986663.0,0.332,-0.755,9.643,-0.0,0.001,0.001,683.0,-20.644,26.644,-53.888,5.0,-32.93357,-60.64628,37.8,0.0,-0.755,3.4946463
782,1633986664.0,0.25,-0.865,9.92,-0.001,0.001,0.001,683.0,-17.119,27.844,-60.975,5.0,-32.93357,-60.64628,37.8,0.0,-0.865,-0.17889844
783,1633986665.0,0.332,-0.762,9.643,0.001,-0.003,-0.002,683.0,-18.506,31.5,-58.763,5.0,-32.93357,-60.64628,37.8,0.0,-0.762,-0.4545045
784,1633986666.0,0.344,-0.738,9.576,-0.0,-0.003,-0.001,683.0,-18.769,30.713,-59.85,5.0,-32.93357,-60.64628,37.8,0.0,-0.738,2.635759
785,1633986667.0,0.313,-0.748,9.585,-0.001,-0.001,-0.001,683.0,-19.069,31.031,-58.913,5.0,-32.93357,-60.64628,37.8,0.0,-0.748,2.4047673
786,1633986668.0,0.248,-0.853,9.849,0.001,-0.001,-0.0,683.0,-20.063,31.05,-58.575,5.0,-32.93357,-60.64628,37.8,0.0,-0.853,9.873052
787,1633986669.0,0.306,-0.86,9.801,-0.0,-0.0,0.001,683.0,-18.019,29.606,-58.781,5.0,-32.93357,-60.64628,37.8,0.0,-0.86,0.816355
788,1633986670.0,0.351,-0.795,9.64,-0.0,0.001,-0.0,683.0,-18.0,28.8,-60.319,5.0,-32.93357,-60.64628,37.8,0.0,-0.795,4.753689
789,1633986671.0,0.274,-0.855,9.851,0.001,0.0,0.0,683.0,-17.756,30.375,-57.544,5.0,-32.93357,-60.64628,37.8,0.0,-0.855,3.2918415
790,1633986672.0,0.286,-0.831,9.825,-0.0,-0.0,0.0,683.0,-18.019,29.606,-58.313,5.0,-32.93357,-60.64628,37.8,0.0,-0.831,4.6661706
791,1633986673.0,0.286,-0.851,9.887,0.001,-0.002,-0.0,683.0,-20.044,30.263,-58.106,5.0,-32.93357,-60.64628,37.8,0.0,-0.851,2.9504051
792,1633986674.0,0.267,-0.805,9.827,-0.001,0.001,0.001,683.0,-18.056,31.181,-57.994,5.0,-32.93357,-60.64628,37.8,0.0,-0.805,2.62313
793,1633986675.0,0.299,-0.776,9.652,0.002,0.001,0.003,683.0,-18.75,30.394,-58.294,5.0,-32.93357,-60.64628,37.8,0.0,-0.776,-1.4836905
794,1633986676.0,0.277,-0.74,9.643,0.001,-0.0,0.0,683.0,-19.013,29.456,-58.125,5.0,-32.93357,-60.64628,37.8,0.0,-0.74,-3.8992436
795,1633986677.0,0.296,-0.795,9.643,0.001,0.001,-0.0,683.0,-19.331,30.563,-58.894,5.0,-32.93357,-60.64628,37.8,0.0,-0.795,-3.8335936
796,1633986678.0,0.545,-0.81,9.76,0.001,-0.001,-0.002,759.2,-18.619,30.244,-58.144,5.0,-32.93357,-60.64628,37.8,0.0,-0.81,-16.695713
797,1633986679.0,0.236,0.084,9.748,0.007,-0.001,0.001,759.2,-18.75,29.925,-57.975,5.0,-32.93357,-60.64628,37.8,0.0,0.084,-25.70667
798,1633986680.0,0.174,-0.913,9.837,-0.002,0.002,0.003,759.2,-18.356,31.35,-59.4,5.0,-32.93357,-60.64635,45.0,0.3611111111111111,-0.913,-27.322563
799,1633986681.0,0.243,-1.076,9.75,0.002,0.005,0.003,759.2,-19.331,30.244,-58.125,5.0,-32.93357,-60.64636,44.8,0.8333333333333333,-1.076,-34.961674
800,1633986682.0,0.301,1.26,10.11,0.004,0.013,0.008,844.6,-19.463,29.625,-58.744,5.0,-32.93357,-60.64636,45.6,0.25,1.26,-47.118256
801,1633986683.0,0.25,1.181,9.645,0.001,-0.024,0.003,844.6,-19.144,28.819,-57.975,5.0,-32.93356,-60.64637,44.6,1.25,1.181,-52.602726
802,1633986684.0,0.123,-1.025,9.535,0.013,0.014,0.023,844.6,-18.375,31.819,-58.144,5.0,-32.93355,-60.6464,44.4,3.7222222222222223,-1.025,-46.60966
803,1633986685.0,0.111,0.28,10.457,-0.001,-0.015,-0.008,765.0,-19.181,29.925,-57.975,5.0,-32.93353,-60.64643,44.6,4.388888888888889,0.28,-53.05472
804,1633986686.0,0.675,-0.762,10.268,-0.005,0.019,-0.003,690.9,-18.731,29.606,-59.531,5.0,-32.9335,-60.64648,45.1,5.194444444444444,-0.762,-47.96055
805,1633986687.0,0.617,-0.755,8.517,-0.003,-0.046,-0.022,498.0,-19.2,30.413,-59.831,5.0,-32.93347,-60.64652,45.2,6.027777777777778,-0.755,-43.23389
806,1633986688.0,0.001,-1.078,10.275,0.002,-0.018,-0.019,451.3,-21.038,29.644,-59.794,5.0,-32.93345,-60.64658,46.5,6.222222222222221,-1.078,-57.42596
807,1633986689.0,0.133,-1.212,9.451,-0.021,0.016,-0.01,451.3,-19.763,30.581,-58.575,5.0,-32.93342,-60.64664,46.9,5.916666666666667,-1.212,-54.19136
808,1633986690.0,0.397,-1.095,10.189,-0.001,0.038,-0.014,507.6,-19.35,31.05,-58.894,5.0,-32.93339,-60.64668,44.9,5.388888888888888,-1.095,-52.805164
809,1633986691.0,0.236,-2.106,10.259,0.009,-0.04,-0.033,565.4,-18.469,30.394,-58.294,5.0,-32.93336,-60.64672,45.4,5.055555555555555,-2.106,-30.70404
810,1633986692.0,0.207,-1.955,9.695,-0.013,-0.003,-0.01,565.4,-17.213,31.013,-61.744,5.0,-32.93334,-60.64676,45.0,4.277777777777778,-1.955,-45.979656
811,1633986693.0,0.212,-2.295,9.741,0.009,0.006,-0.004,565.4,-19.05,30.563,-60.15,5.0,-32.93333,-60.64679,45.8,3.083333333333333,-2.295,-33.489323
812,1633986694.0,0.281,-1.454,9.535,0.004,-0.001,0.005,639.9,-19.181,30.413,-58.275,5.0,-32.93331,-60.6468,45.6,2.0277777777777777,-1.454,-28.91427
813,1633986695.0,0.164,-1.112,9.875,0.002,-0.002,-0.001,719.3,-21.188,29.813,-58.538,5.0,-32.93331,-60.64681,46.5,1.1111111111111112,-1.112,-22.086035
814,1633986696.0,0.097,-0.982,9.827,0.001,-0.0,0.0,799.3,-18.769,30.713,-58.294,5.0,-32.9333,-60.64681,46.6,0.5,-0.982,-20.066381
815,1633986697.0,0.142,-0.779,9.635,-0.0,0.0,0.001,799.3,-19.181,29.925,-57.506,5.0,-32.9333,-60.64681,47.2,0.16666666666666666,-0.779,-13.230365
816,1633986698.0,0.073,-0.822,9.896,0.001,-0.002,-0.001,799.3,-20.644,31.219,-57.169,5.0,-32.9333,-60.6468,47.3,0.0,-0.822,-5.6826735
817,1633986699.0,0.135,-0.712,9.65,-0.001,-0.001,-0.002,799.3,-20.531,31.856,-57.788,5.0,-32.9333,-60.6468,46.3,0.0,-0.712,-4.1947827
818,1633986700.0,0.111,-0.75,9.808,-0.0,0.002,0.001,799.3,-20.644,30.75,-58.706,5.0,-32.9333,-60.6468,46.3,0.0,-0.75,-3.213454
819,1633986701.0,0.13,-0.724,9.693,-0.0,0.001,0.001,799.3,-19.369,31.838,-57.038,5.0,-32.9333,-60.6468,46.3,0.0,-0.724,-4.7756677
820,1633986702.0,0.126,0.23,9.719,0.003,0.001,-0.002,799.3,-19.2,30.731,-56.738,5.0,-32.9333,-60.6468,46.3,0.0,0.23,-41.619007
821,1633986703.0,0.219,-0.204,9.999,-0.005,-0.005,0.001,799.3,-19.313,29.775,-59.363,5.0,-32.93329,-60.6468,47.6,0.25,-0.204,-43.938465
822,1633986704.0,0.231,0.168,9.896,0.01,0.018,-0.002,799.3,-17.775,31.181,-58.313,5.0,-32.93329,-60.64681,48.1,1.4444444444444444,0.168,-45.774048
823,1633986705.0,0.075,-0.132,9.908,-0.022,0.024,-0.006,799.3,-18.094,31.969,-57.994,5.0,-32.93326,-60.64685,49.0,2.9166666666666665,-0.132,-45.74808
824,1633986706.0,0.171,-0.822,9.65,0.006,0.015,-0.009,724.5,-15.6,30.338,-56.813,5.0,-32.93324,-60.64687,48.6,3.2777777777777777,-0.822,-44.163433
825,1633986707.0,-0.13,-0.807,9.877,-0.025,0.002,0.002,657.8,-18.788,31.2,-60.619,5.0,-32.93322,-60.6469,49.2,3.3055555555555554,-0.807,-43.962475
826,1633986708.0,0.349,-0.29,9.566,-0.021,-0.004,-0.006,657.8,-19.069,31.031,-59.381,5.0,-32.93321,-60.64693,49.1,3.3888888888888884,-0.29,-44.60066
827,1633986709.0,-0.035,-0.422,9.533,0.006,-0.03,-0.013,657.8,-20.194,30.431,-59.813,5.0,-32.93318,-60.64695,48.8,3.7222222222222223,-0.422,-42.55167
828,1633986710.0,-0.035,-0.659,10.247,-0.016,0.018,0.003,657.8,-20.1,32.156,-58.106,5.0,-32.93315,-60.64697,48.6,3.8055555555555554,-0.659,-43.594532
829,1633986711.0,0.257,-0.944,9.865,0.005,-0.015,-0.014,597.6,-19.331,30.244,-58.894,5.0,-32.93313,-60.647,48.9,4.0,-0.944,-40.296787
830,1633986712.0,0.181,-0.87,9.786,-0.01,-0.008,-0.023,597.6,-22.8,30.788,-58.969,5.0,-32.9331,-60.64703,49.0,4.166666666666667,-0.87,-30.242447
